timestamp,ecg_value,wrist_accel_x,wrist_accel_y,wrist_accel_z,wrist_gyro_x,wrist_gyro_y,wrist_gyro_z,ankle_accel_x,ankle_accel_y,ankle_accel_z,ankle_gyro_x,ankle_gyro_y,ankle_gyro_z,orientation,wrist_accel_magnitude,wrist_gyro_magnitude,ankle_accel_magnitude,ankle_gyro_magnitude,total_accel_magnitude,total_gyro_magnitude
2025-03-11 23:43:27.400,63.0,0.00145,0.11445,1.0084499999999998,0.98,-2.03,-0.385,-0.9720000000000001,-0.2603,0.10072,-0.644,-3.178,0.44799999999999995,0.0,1.0149247792324314,2.2868154713487487,1.0112786996669119,3.273396401293311,2.026203478899343,5.56021187264206
2025-03-11 23:43:27.500,62.86206896551724,0.012889999999999999,0.10881,1.00626,0.798,-0.749,-0.462,-0.9710526315789473,-0.260521052631579,0.10217368421052632,-0.3794736842105263,-2.8663157894736844,0.46421052631578946,0.0,1.0122079607471974,1.1879600161621602,1.0105710731590416,2.92835412727642,2.022779033906239,4.11631414343858
2025-03-11 23:43:27.600,61.29032258064516,0.01123,0.10978999999999998,1.00695,-0.013999999999999995,-1.9739999999999998,-0.8470000000000001,-0.9705666666666666,-0.2607222222222222,0.10263888888888889,-0.5561111111111111,-2.9283333333333332,0.4161111111111111,0.0,1.012979890965265,2.148087754259588,1.0102031840759975,3.009575407894354,2.0231830750412625,5.157663162153942
2025-03-11 23:43:27.700,61.55172413793103,0.008822222222222223,0.11114444444444443,1.0068,0.04666666666666666,-1.6644444444444444,-0.8400000000000001,-0.9712,-0.2597157894736842,0.10096842105263157,-0.523157894736842,-3.006315789473684,0.4163157894736842,0.0,1.0129546678582426,1.8649807201201178,1.0103842602454773,3.0797642191293413,2.02333892810372,4.944744939249459
2025-03-11 23:43:27.800,59.935483870967744,0.01303,0.10677999999999999,1.00684,0.553,-1.547,-0.798,-0.9712000000000001,-0.2603833333333333,0.10146111111111111,-0.4705555555555556,-2.9244444444444446,0.42388888888888887,0.0,1.0125702617102676,1.8264232806225396,1.010605401403376,2.9922365597709066,2.0231756631136437,4.818659840393446
2025-03-11 23:43:27.900,61.06896551724138,0.0104,0.1067111111111111,1.0046222222222223,0.3422222222222222,-2.558888888888889,-0.8477777777777777,-0.9710105263157895,-0.2611684210526316,0.10122105263157895,-0.5342105263157895,-2.9031578947368417,0.40157894736842104,0.0,1.0103272888610324,2.7173066730782445,1.0106018443813745,2.9790891727454167,2.020929133242407,5.696395845823661
2025-03-11 23:43:28.000,61.53125,0.00894,0.10765,1.00777,0.294,-2.527,-0.889,-0.9716833333333335,-0.25914444444444446,0.10140555555555555,-0.4588888888888889,-3.22,0.44333333333333336,0.0,1.0135427070429741,2.6948999981446438,1.010745977019809,3.2826092452179143,2.024288684062783,5.977509243362558
2025-03-11 23:43:28.100,61.77777777777778,0.014744444444444442,0.10474444444444445,1.0069444444444444,-1.6722222222222223,-2.908888888888889,-0.5677777777777777,-0.9702473684210526,-0.2604842105263158,0.10222105263157895,0.5342105263157896,-2.696842105263158,0.4715789473684211,0.0,1.0124850179047005,3.4029888823405425,1.0097926140859834,2.7893950833017405,2.0222776319906837,6.192383965642283
2025-03-11 23:43:28.200,61.3125,0.01744,0.11063,1.00654,0.9730000000000001,-2.52,-0.6859999999999999,-0.9703277777777779,-0.26310555555555554,0.10161111111111111,-0.5911111111111111,-2.9866666666666664,0.44722222222222224,0.0,1.0127516586508263,2.7870638672265837,1.0104876781003282,3.077271167691624,2.0232393367511543,5.8643350349182075
2025-03-11 23:43:28.300,60.86206896551724,0.013550000000000001,0.10711999999999999,1.0060499999999999,0.602,-0.476,-1.078,-0.9716315789473683,-0.2596473684210526,0.10137368421052631,-0.4789473684210526,-3.0136842105263155,0.43473684210526314,0.0,1.0118275047655108,1.3232777486227145,1.0108220936377228,3.0823171842587405,2.0226495984032336,4.4055949328814545
2025-03-11 23:43:28.400,60.935483870967744,0.014933333333333333,0.1082111111111111,1.0057333333333334,0.7855555555555556,-2.4811111111111113,-0.5211111111111111,-0.9709166666666668,-0.2607611111111111,0.10138888888888889,-0.44333333333333336,-2.9827777777777778,0.4627777777777778,0.0,1.011648252501888,2.6541602564025157,1.0104232961829096,3.0508475851235706,2.0220715486847975,5.705007841526086
2025-03-11 23:43:28.500,60.92857142857143,0.012620000000000001,0.10946,1.00582,0.392,-2.121,-0.504,-0.9717,-0.26021666666666665,0.10158333333333333,-0.44333333333333336,-3.0566666666666666,0.4511111111111111,0.0,1.0118372539099358,2.215021670322889,1.0110552790140717,3.121419034689745,2.0228925329240077,5.336440705012634
2025-03-11 23:43:28.600,60.8125,0.0153,0.10708888888888889,1.0069555555555556,0.948888888888889,-0.3188888888888889,-0.8555555555555556,-0.9705736842105263,-0.2597421052631579,0.10286842105263157,-0.5305263157894737,-3.01,0.3868421052631579,0.0,1.012749530233243,1.3168354322220965,1.009980767033904,3.0807799314702087,2.022730297267147,4.397615363692305
2025-03-11 23:43:28.700,59.275862068965516,0.010620000000000001,0.10735999999999998,1.0071400000000001,0.406,-2.065,-0.665,-0.9705166666666667,-0.26232222222222223,0.10199444444444444,-0.4161111111111111,-2.9322222222222223,0.5016666666666666,0.0,1.012901739360734,2.207099000951249,1.010504040193266,3.003788451560528,2.023405779554,5.210887452511777
2025-03-11 23:43:28.800,58.516129032258064,0.014000000000000002,0.10922000000000001,1.00689,0.616,-1.526,-0.567,-0.971963157894737,-0.2586421052631579,0.10163157894736842,-0.523157894736842,-2.9326315789473685,0.4163157894736842,0.0,1.0128931239276926,1.740580650242901,1.0109090447508138,3.0078798176173724,2.0238021686785066,4.748460467860274
2025-03-11 23:43:28.900,57.6551724137931,0.009288888888888888,0.10976666666666667,1.0056666666666667,0.7233333333333333,-1.6333333333333333,-0.5833333333333334,-0.9716111111111112,-0.26055,0.10180555555555555,-0.44722222222222224,-2.8505555555555557,0.3966666666666667,0.0,1.0116819900602885,1.8791664818920826,1.011078050833141,2.912562297325582,2.0227600408934294,4.791728779217665
2025-03-11 23:43:29.000,59.71875,0.01308,0.10786,1.00655,0.721,-1.855,-0.784,-0.9711684210526317,-0.25980526315789476,0.10125263157894737,-0.49000000000000005,-3.028421052631579,0.44578947368421057,0.0,1.012397040937991,2.1390469840562174,1.0104053504490496,3.1000261816426335,2.0228023913870405,5.239073165698851
2025-03-11 23:43:29.100,61.17857142857143,0.01138888888888889,0.10862222222222222,1.0062,0.5211111111111112,-1.96,-0.8011111111111111,-0.9712722222222223,-0.26028333333333337,0.10129444444444444,-0.43944444444444447,-2.9944444444444445,0.44722222222222224,0.0,1.0121101392391132,2.1805815285077363,1.0106323306459741,3.05938174582164,2.0227424698850873,5.2399632743293765
2025-03-11 23:43:29.200,61.40625,0.01424,0.10849,1.00654,0.5599999999999999,-1.5470000000000002,-0.875,-0.9713210526315791,-0.26036315789473685,0.10179473684210526,-0.523157894736842,-2.8552631578947367,0.3942105263157895,0.0,1.0124700634092842,1.8634468063242375,1.0107500827222284,2.9294408720291116,2.0232201461315125,4.792887678353349
2025-03-11 23:43:29.300,61.392857142857146,0.008790000000000001,0.10969,1.00621,0.665,-1.6239999999999999,-0.7070000000000001,-0.9714444444444444,-0.26027222222222224,0.10149999999999999,-0.43166666666666664,-2.9905555555555554,0.42388888888888887,0.0,1.0122093283012166,1.891943445243541,1.0108156054901751,3.0511375636143914,2.0230249337913917,4.9430810088579324
2025-03-11 23:43:29.400,60.935483870967744,0.010722222222222223,0.10816666666666666,1.0060777777777778,0.5522222222222223,-1.4933333333333332,-0.9022222222222221,-0.9711368421052631,-0.2605263157894737,0.1013421052631579,-0.5047368421052632,-2.9657894736842105,0.42368421052631583,0.0,1.0119325514901831,1.8300269848917796,1.0105696164105609,3.0381202728403904,2.022502167900744,4.86814725773217
2025-03-11 23:43:29.500,60.758620689655174,0.01122,0.10834999999999999,1.00693,0.217,-2.247,-0.44800000000000006,-0.9710833333333334,-0.25963888888888886,0.10102222222222222,-0.44333333333333336,-2.9166666666666665,0.4122222222222222,0.0,1.0128048359876647,2.3014782206225632,1.0102577306232063,2.9788279657245593,2.023062566610871,5.280306186347122
2025-03-11 23:43:29.600,61.12903225806452,0.011922222222222223,0.10837777777777777,1.005122222222222,0.5911111111111111,-2.022222222222222,-0.6533333333333333,-0.97135,-0.26039166666666663,0.101675,-0.4258333333333333,-2.9924999999999997,0.44333333333333336,0.0,1.0110185773286775,2.2058194636399504,1.0107731932508126,3.0549852245505575,2.0217917705794903,5.2608046881905075
2025-03-11 23:43:29.700,61.55172413793103,0.0091,0.10986666666666665,1.0051333333333334,0.49,-1.9288888888888889,-0.9255555555555556,-0.97126,-0.26076,0.10110000000000001,-0.462,-2.779,0.469,0.0,1.011160972458007,2.194849751600042,1.0107239856657209,2.8559142143979046,2.021884958123728,5.050763965997946
2025-03-11 23:43:29.800,60.25806451612903,0.016327272727272725,0.10847272727272728,1.0066090909090908,0.5854545454545454,-1.8009090909090908,-0.77,-0.9712999999999999,-0.26118,0.10136,-0.46900000000000003,-2.856,0.392,0.0,1.0125684047497832,2.0442432777221984,1.0108968948414077,2.9206781746710813,2.023465299591191,4.96492145239328
2025-03-11 23:43:29.900,59.59375,0.008877777777777778,0.10817777777777776,1.0076222222222222,0.6533333333333333,-1.3844444444444446,-0.9255555555555556,-0.9717111111111111,-0.2601555555555556,0.10097777777777778,-0.43555555555555553,-2.838888888888889,0.4277777777777778,0.0,1.0134514242228185,1.7889057970215436,1.0109895687632726,2.9037893505887427,2.024440992986091,4.692695147610286
2025-03-11 23:43:30.000,60.724137931034484,0.01103,0.10829,1.00767,0.42000000000000004,-1.386,-0.6930000000000001,-0.97112,-0.26113,0.10171999999999999,-0.532,-2.891,0.39899999999999997,0.0,1.0135320487779358,1.6055045935779817,1.010747193763109,2.9664972610808187,2.024279242541045,4.572001854658801
2025-03-11 23:43:30.100,60.483870967741936,0.009470000000000001,0.10856999999999999,1.0063600000000001,0.44800000000000006,-2.471,-0.7,-0.9718111111111111,-0.2592333333333333,0.10139999999999999,-0.44333333333333336,-3.01,0.4588888888888889,0.0,1.0122438319891112,2.607018411902762,1.0108910509002063,3.0768853499586433,2.0231348828893174,5.683903761861405
2025-03-11 23:43:30.200,60.48275862068966,0.012255555555555556,0.10865555555555556,1.0064333333333333,0.5211111111111111,-1.7266666666666666,-0.7311111111111112,-0.9699,-0.26214,0.10150999999999999,-0.5389999999999999,-2.9539999999999997,0.42699999999999994,0.0,1.0123558084189108,1.9461392613817126,1.0098156612471407,3.0329797229787077,2.0221714696660515,4.97911898436042
2025-03-11 23:43:30.300,60.096774193548384,0.009859999999999999,0.10828,1.00612,0.6719999999999999,-1.022,-0.826,-0.972188888888889,-0.2582222222222222,0.1005888888888889,-0.3655555555555556,-2.761111111111111,0.4822222222222222,0.0,1.0119778813788372,1.4759214071216664,1.0109144752630148,2.8266417713788394,2.0228923566418517,4.302563178500506
2025-03-11 23:43:30.400,60.13793103448276,0.009877777777777779,0.10933333333333334,1.006911111111111,0.6922222222222223,-1.8277777777777777,-0.6377777777777778,-0.97054,-0.26117,0.10063,0.007000000000000006,-1.7429999999999999,0.35700000000000004,0.0,1.0128777487686347,2.0558948668897696,1.0100911134150226,1.7791984150172795,2.0229688621836575,3.8350932819070493
2025-03-11 23:43:30.500,60.40625,0.00936,0.10877999999999999,1.00587,0.46900000000000003,-1.722,-0.791,-0.97195,-0.26043,0.09923,-0.371,-3.157,0.616,0.0,1.0117782142841385,1.952159317268957,1.0111167985450544,3.23786133118761,2.022895012829193,5.190020648456567
2025-03-11 23:43:30.600,59.888888888888886,0.01009,0.10808999999999999,1.00713,0.665,-1.8829999999999998,-0.9029999999999999,-0.9708,-0.2597222222222222,0.10205555555555555,-1.4,-4.752222222222223,0.35777777777777775,0.0,1.012964013724081,2.19164846633761,1.010110691526331,4.967053551921333,2.023074705250412,7.158702018258943
2025-03-11 23:43:30.700,60.78125,0.007633333333333333,0.10866666666666666,1.0064111111111111,0.4977777777777778,-1.5244444444444443,-0.7466666666666666,-0.9709444444444445,-0.25912222222222225,0.102,-0.07777777777777778,-2.3255555555555554,0.39666666666666667,0.0,1.0122895024597083,1.7689614725476708,1.0100898179107212,2.360424213808993,2.0223793203704297,4.129385686356663
2025-03-11 23:43:30.800,60.58620689655172,0.009760000000000001,0.10876999999999999,1.00684,0.742,-2.072,-0.679,-0.9709099999999999,-0.26191,0.10067999999999999,-0.33599999999999997,-2.8630000000000004,0.434,0.0,1.0127452572587046,2.3032127561300104,1.0106431311793496,2.9151365319655276,2.023388388438054,5.218349288095538
2025-03-11 23:43:30.900,61.16129032258065,0.009011111111111112,0.10849999999999999,1.0052444444444444,0.40444444444444444,-2.1777777777777776,-0.8944444444444445,-0.97097,-0.25927,0.10145,-0.63,-3.311,0.532,0.0,1.0111230603689525,2.3887909540648846,1.0100969143107013,3.4121320314430976,2.0212199746796538,5.800922985507983
2025-03-11 23:43:31.000,60.0,0.010409999999999999,0.10941999999999999,1.0065,0.31500000000000006,-1.764,-0.595,-0.97122,-0.2603,0.10052000000000001,-0.357,-2.59,0.40599999999999997,0.0,1.0124837551783237,1.888106458862953,1.0105091037689864,2.6458240682252474,2.02299285894731,4.5339305270882
2025-03-11 23:43:31.100,59.61290322580645,0.008150000000000001,0.10821,1.0063900000000001,0.616,-1.491,-0.637,-0.9705555555555555,-0.2601777777777778,0.1014111111111111,-0.6533333333333333,-3.111111111111111,0.4588888888888889,0.0,1.0122236208960944,1.734446885897634,1.0099281043351185,3.211920889821095,2.022151725231213,4.946367775718729
2025-03-11 23:43:31.200,60.241379310344826,0.010722222222222223,0.1072,1.0064111111111111,1.0344444444444445,-1.6877777777777778,-0.8088888888888889,-0.97111,-0.26148,0.10005,-0.301,-2.793,0.518,0.0,1.0121611189021658,2.138450460116009,1.010661379988372,2.856531813230863,2.0228224988905374,4.9949822733468725
2025-03-11 23:43:31.300,60.54838709677419,0.004880000000000001,0.1103,1.0046,0.546,-1.799,-0.595,-0.9714777777777778,-0.2587,0.10176666666666667,-2.527777777777778,-3.0644444444444443,0.40444444444444444,0.0,1.0106488333738874,1.9719386400190042,1.0104707898600997,3.993000820880902,2.021119623233987,5.964939460899906
2025-03-11 23:43:31.400,60.96551724137931,0.009155555555555556,0.1071,1.009022222222222,0.5366666666666666,-2.4266666666666667,-0.9022222222222224,-0.9715,-0.26080000000000003,0.10047999999999999,1.3299999999999998,-2.898,0.462,-0.1,1.0147315305714129,2.643998328383327,1.0109031211743291,3.2219168207761046,2.025634651745742,5.865915149159432
2025-03-11 23:43:31.500,59.9375,0.01484,0.1095,1.00528,0.637,-1.6309999999999998,-0.8400000000000001,-0.9707699999999999,-0.26142,0.10185,-0.497,-2.877,0.33599999999999997,-0.16,1.0113349366060682,1.9420427389735786,1.0104990013849593,2.9388831211873665,2.0218339379910275,4.880925860160945
2025-03-11 23:43:31.600,60.142857142857146,0.0038333333333333336,0.10984444444444444,1.0062666666666666,0.8088888888888889,-1.4233333333333333,-1.0033333333333332,-0.9717666666666668,-0.2608,0.10031111111111111,-0.5911111111111111,-2.947777777777778,0.4666666666666667,-0.16,1.012251500796219,1.920118952076526,1.0111426276528896,3.0424634674252515,2.023394128449109,4.962582419501778
2025-03-11 23:43:31.700,60.65625,0.01531,0.10862000000000001,1.00562,2.121,-3.8289999999999997,-0.567,-0.9715999999999999,-0.25884,0.10136,-0.44800000000000006,-3.003,0.434,-0.11,1.0115850359213505,4.413770610260574,1.010583274747806,3.0670945534821716,2.022168310669157,7.480865163742745
2025-03-11 23:43:31.800,60.925925925925924,0.012790000000000001,0.11005000000000001,1.0051400000000001,0.511,-2.009,-0.749,-0.9712777777777778,-0.26236666666666664,0.10011111111111111,-0.4433333333333333,-2.8855555555555554,0.5288888888888889,-0.01,1.0112274750025338,2.204133162946377,1.0110583682214482,2.966934236789231,2.0222858432239823,5.171067399735608
2025-03-11 23:43:31.900,61.15625,0.010677777777777779,0.10855555555555556,1.0053444444444444,0.21000000000000002,-2.3177777777777777,-1.088888888888889,-0.97112,-0.25782,0.1,-0.42699999999999994,-2.933,0.45499999999999996,0.03,1.0112446665152581,2.569410990773211,1.0097253125479226,2.9986401918202854,2.0209699790631808,5.568051182593496
2025-03-11 23:43:32.000,59.724137931034484,0.01532,0.11068,1.00591,0.189,-2.443,-1.064,-0.97088,-0.26172,0.10150999999999999,-0.532,-3.185,0.45499999999999996,-0.02,1.0120966815971684,2.671341610502109,1.010648115270592,3.2610234589772578,2.0227447968677605,5.932365069479367
2025-03-11 23:43:32.100,60.38709677419355,0.015109999999999998,0.10863,1.0078200000000002,-0.19600000000000004,-1.351,1.0430000000000001,-0.9714999999999999,-0.2592444444444444,0.1022111111111111,-0.6455555555555555,-2.94,0.3188888888888889,0.01,1.0137701620189856,1.7179831198239406,1.0106765274853653,3.0268848836329125,2.0244466895043507,4.744868003456853
2025-03-11 23:43:32.200,59.3448275862069,0.013211111111111111,0.10757777777777777,1.0071222222222223,0.30333333333333334,-0.43555555555555553,-0.4666666666666667,-0.97054,-0.2624,0.09901,-0.476,-2.891,0.49000000000000005,0.01,1.0129376497209601,0.7067513925449298,1.0102497867854265,2.97061559276861,2.0231874365063867,3.6773669853135402
2025-03-11 23:43:32.300,60.34375,0.010440000000000001,0.10516,1.0030899999999998,0.24500000000000002,-0.665,-0.434,-0.9713222222222222,-0.2584111111111111,0.1034111111111111,-0.4122222222222222,-3.033333333333333,0.5444444444444445,0.01,1.0086412480659315,0.8310270753711939,1.0104142811884784,3.109253612153785,2.01905552925441,3.9402806875249787
2025-03-11 23:43:32.400,60.41935483870968,0.0008666666666666667,0.10464444444444444,1.0100555555555557,0.10888888888888888,-2.838888888888889,-0.8711111111111111,-0.9724,-0.25714000000000004,0.10067999999999999,-0.406,-3.052,0.476,0.01,1.0154621786028468,2.971528475630257,1.010850731809598,3.115464010384328,2.026312910412445,6.086992486014585
2025-03-11 23:43:32.500,59.758620689655174,0.01806,0.10655999999999999,1.0063,0.357,-4.382,-0.392,-0.9711299999999999,-0.26127,0.10203,-0.6859999999999999,-3.003,0.189,-0.05,1.0120873910883388,4.4139593337501415,1.0108242234434235,3.08615067681408,2.022911614531762,7.500110010564221
2025-03-11 23:43:32.600,59.774193548387096,0.018459999999999997,0.10664,1.0065300000000001,0.602,-0.728,-0.833,-0.9715555555555555,-0.26139999999999997,0.10162222222222222,-0.1788888888888889,-3.126666666666667,0.56,-0.05,1.0123317154470663,1.2594748905794033,1.0112256096342926,3.1814533909853755,2.023557325081359,4.440928281564779
2025-03-11 23:43:32.700,59.41379310344828,0.014966666666666668,0.10545555555555557,1.0070000000000001,0.6611111111111111,0.4511111111111112,-0.7388888888888889,-0.97115,-0.26006,0.10169999999999998,-0.532,-3.038,0.38499999999999995,-0.085,1.0126173390321944,1.089277708358124,1.0104981029670466,3.1081655361322054,2.023115441999241,4.197443244490329
2025-03-11 23:43:32.800,60.96774193548387,0.0059900000000000005,0.10042,1.00488,0.5740000000000001,-1.2600000000000002,-0.77,-0.9710555555555556,-0.2579888888888889,0.10274444444444444,-0.4122222222222222,-2.9633333333333334,0.49,-0.085,1.0099029017187742,1.584290377424543,1.009981969952746,3.0317274951648066,2.01988487167152,4.6160178725893495
2025-03-11 23:43:32.900,60.206896551724135,0.0088,0.10823333333333333,1.0076111111111112,0.32666666666666666,-1.2522222222222221,-0.5211111111111111,-0.97043,-0.26229,0.10243,-0.5740000000000001,-3.003,0.406,-0.085,1.0134456303517285,1.3951087395116297,1.0104564977771187,3.0842050839722055,2.023902128128847,4.479313823483835
2025-03-11 23:43:33.000,59.46875,0.00781,0.10565,1.00668,0.588,-0.133,-0.8400000000000001,-0.9719899999999999,-0.25782,0.10150999999999999,-0.42699999999999994,-3.08,0.392,-0.085,1.012238875463692,1.0339405205329755,1.0107126162267885,3.1340697184332065,2.0229514916904803,4.168010238966182
2025-03-11 23:43:33.100,59.148148148148145,0.003466666666666667,0.10404444444444444,1.006788888888889,0.10111111111111111,-1.2055555555555555,-0.7466666666666666,-0.9703444444444445,-0.2632555555555556,0.1035,-0.5366666666666666,-3.01,0.38111111111111107,-0.01,1.012156673142876,1.4216535321350623,1.0107344252547559,3.081129142071694,2.022891098397632,4.502782674206756
2025-03-11 23:43:33.200,59.9375,0.00478,0.10633,1.0068899999999998,0.6719999999999999,-1.183,-0.833,-0.9724222222222222,-0.2572888888888889,0.10163333333333333,-0.3422222222222222,-2.9633333333333334,0.49,-0.11,1.0125000688395036,1.5952937033662484,1.0110053833000734,3.0230052090307686,2.023505452139577,4.618298912397017
2025-03-11 23:43:33.300,60.03448275862069,0.006240000000000001,0.10301,1.0057399999999999,0.462,-1.7289999999999999,-0.756,-0.97083,-0.26166,0.10276,-0.616,-3.059,0.385,-0.23,1.0110207442481087,1.9427869157475812,1.0107108696852922,3.1440677473616883,2.021731613933401,5.0868546631092695
2025-03-11 23:43:33.400,60.54838709677419,-0.0023222222222222225,0.1049,1.0072999999999999,0.8633333333333334,-1.7033333333333334,-0.8711111111111111,-0.9715,-0.26049,0.10288,-0.42699999999999994,-2.975,0.45499999999999996,-0.4,1.0127500642883462,2.0989338857596547,1.0110645797870679,3.0397333764657715,2.023814644075414,5.138667262225426
2025-03-11 23:43:33.500,60.206896551724135,0.0046300000000000004,0.10355,1.00631,0.5389999999999999,-1.54,-0.8119999999999999,-0.9710699999999999,-0.25981,0.10284,-0.46900000000000003,-2.947,0.392,-0.55,1.011634249865039,1.8224886830924356,1.0104722888827777,3.009723243090633,2.022106538747817,4.832211926183069
2025-03-11 23:43:33.600,60.67741935483871,0.003433333333333334,0.10466666666666666,1.007488888888889,0.3422222222222222,-2.348888888888889,-0.8400000000000001,-0.9711222222222222,-0.2604777777777778,0.10285555555555555,-0.5055555555555555,-3.0411111111111113,0.4277777777777778,-0.63,1.0129169561832092,2.5179346817835437,1.0106959525586905,3.1123844616366143,2.0236129087418995,5.630319143420158
2025-03-11 23:43:33.700,60.275862068965516,0.0014700000000000002,0.10408999999999999,1.00632,0.602,-2.373,-0.602,-0.9718899999999999,-0.25834999999999997,0.10407999999999999,-0.33599999999999997,-3.276,0.45499999999999996,-0.68,1.0116900866372074,2.5210983717419677,1.0110131260275506,3.324469431352919,2.0227032126647577,5.8455678030948865
2025-03-11 23:43:33.800,60.96774193548387,-0.00688,0.10511,1.00563,0.5740000000000001,-1.8690000000000002,-0.819,-0.9699666666666666,-0.26212222222222226,0.10106666666666667,-0.5211111111111112,-2.768888888888889,0.38111111111111107,-0.73,1.0111316152707321,2.119763666072235,1.0098306120029594,2.8431581292900594,2.0209622272736913,4.962921795362295
2025-03-11 23:43:33.900,60.172413793103445,0.004277777777777778,0.10297777777777778,1.0064666666666666,0.4433333333333333,-2.03,-0.6766666666666666,-0.9721,-0.25765,0.10389,-0.434,-2.975,0.469,-0.73,1.011730138529972,2.1852510661757427,1.011016846842821,3.042850965788499,2.022746985372793,5.228102031964242
2025-03-11 23:43:34.000,60.09375,0.0004300000000000001,0.10583000000000001,1.00903,0.623,-2.17,-0.7,-0.97101,-0.26092,0.10259,-0.469,-2.975,0.42699999999999994,-0.69,1.014564790784699,2.3636897004471633,1.0106752072748197,3.0418604504480475,2.0252399980595186,5.405550150895211
2025-03-11 23:43:34.100,60.17857142857143,0.008088888888888889,0.1044888888888889,1.0062333333333333,0.23333333333333334,-1.1277777777777778,-0.8633333333333333,-0.9722666666666667,-0.2581,0.10200000000000001,-0.5211111111111112,-3.033333333333333,0.3188888888888889,-0.64,1.0116762719051005,1.4393302626354632,1.0110994417519532,3.0942459541367033,2.0227757136570537,4.5335762167721665
2025-03-11 23:43:34.200,59.375,0.0038599999999999997,0.10439000000000001,1.00631,0.44800000000000006,-1.9460000000000002,-0.784,-0.97101,-0.26196,0.10272999999999999,-0.546,-2.9539999999999997,0.462,-0.57,1.0117173458036588,2.1452915885725186,1.0109584138825891,3.0393545367396677,2.0226757596862477,5.184646125312186
2025-03-11 23:43:34.300,59.392857142857146,0.009470000000000001,0.10458,1.00602,0.777,-1.533,-0.7,-0.9714888888888888,-0.25945555555555555,0.10200000000000001,1.54,-3.072222222222222,0.4977777777777777,-0.53,1.0114854906028063,1.8557526774869542,1.0106986922635302,3.4724533256424674,2.0221841828663365,5.328206003129422
2025-03-11 23:43:34.400,61.54838709677419,-0.0046,0.10335555555555555,1.0076555555555555,0.56,-2.278888888888889,-0.9333333333333333,-0.97044,-0.26143,0.10316,-0.399,-2.87,0.462,-0.39,1.012952738041698,2.525479296888483,1.0103174867832387,2.9342026174073257,2.0232702248249366,5.459681914295809
2025-03-11 23:43:34.500,60.41379310344828,-0.0009900000000000002,0.10208999999999999,1.00654,0.08399999999999999,-3.29,-0.315,-0.97076,-0.25806999999999997,0.10298,-0.637,-2.947,0.399,-0.25,1.0117045615198144,3.3061126720062037,1.0097425329756096,3.0413449327559015,2.021447094495424,6.347457604762106
2025-03-11 23:43:34.600,60.45161290322581,0.00735,0.10189999999999999,1.00693,2.149,-3.7030000000000003,-0.805,-0.9705222222222223,-0.26254444444444447,0.10182222222222222,-0.4433333333333333,-2.9166666666666665,0.3888888888888889,-0.035,1.0120996281987265,4.356424566086276,1.0105497187541412,2.9756887365432094,2.0226493469528677,7.332113302629486
2025-03-11 23:43:34.700,60.3448275862069,0.0063999999999999994,0.10937777777777777,1.0067111111111111,0.8244444444444444,-1.221111111111111,-1.0577777777777777,-0.97181,-0.25918,0.10278000000000001,-0.42000000000000004,-2.982,0.413,0.21,1.0126557754272538,1.813757099176958,1.0110156660012741,3.0396205355274204,2.0236714414285277,4.853377634704378
2025-03-11 23:43:34.800,58.75,0.00813,0.10028,1.0077099999999999,1.435,1.309,-0.952,-0.9707777777777777,-0.2609666666666667,0.10471111111111112,-0.4044444444444444,-2.862222222222222,0.42777777777777776,0.31,1.012719911624137,2.163101939345439,1.0106817064379838,2.9221370921271275,2.023401618062121,5.085239031472566
2025-03-11 23:43:34.900,62.12903225806452,-0.0047777777777777775,0.09923333333333334,1.005611111111111,-0.2255555555555556,-3.8188888888888894,-0.77,-0.97111,-0.2603,0.10073000000000001,-0.595,-2.814,0.441,0.37,1.010506698837302,3.902266989112994,1.0104242945416544,2.909828517284137,2.0209309933789563,6.812095506397132
2025-03-11 23:43:35.000,62.51724137931034,0.009670000000000002,0.10643,1.0063499999999999,0.0,-6.412000000000001,-0.518,-0.97102,-0.2596,0.10377,-0.518,-2.793,0.441,0.42,1.0120084862786476,6.432889552914772,1.0104653449277714,2.8746571969540997,2.022473831206419,9.307546749868871
2025-03-11 23:43:35.100,60.96774193548387,0.01245,0.10594999999999999,1.00931,-1.099,-0.924,-0.868,-0.9715333333333334,-0.2604666666666666,0.10264444444444444,-0.4588888888888889,-2.683333333333333,0.32666666666666666,0.485,1.0149320573811824,1.6777964715662026,1.0110666566540165,2.741818356717776,2.025998714035199,4.4196148282839784
2025-03-11 23:43:35.200,59.51724137931034,0.0035888888888888893,0.1014111111111111,1.006211111111111,0.5055555555555555,-2.0533333333333332,-0.5988888888888888,-0.97219,-0.26089,0.10154,-0.539,-2.933,0.378,0.485,1.0113149329974829,2.1978244012580785,1.0116952899959553,3.005976380479394,2.023010222993438,5.203800781737472
2025-03-11 23:43:35.300,59.87096774193548,0.016360000000000003,0.1034,1.00607,0.679,-2.324,-0.665,-0.9712222222222222,-0.2594111111111111,0.10394444444444445,-0.4744444444444444,-2.9944444444444445,0.4588888888888889,0.55,1.0115018806210891,2.5108249640307463,1.010629099638951,3.06632908769983,2.02213098026004,5.577154051730576
2025-03-11 23:43:35.400,59.89655172413793,0.012788888888888888,0.10404444444444444,1.0068555555555556,1.3377777777777777,0.015555555555555557,-0.7077777777777778,-0.97101,-0.26073,0.10244,-0.399,-2.996,0.476,0.55,1.0122978375220664,1.513552358110132,1.0106109570947666,3.05970472431573,2.022908794616833,4.573257082425862
2025-03-11 23:43:35.500,60.6875,-0.0011200000000000001,0.10046999999999999,1.00559,0.05600000000000001,-3.2060000000000004,-0.742,-0.97194,-0.26023999999999997,0.10159,-0.497,-2.884,0.441,0.55,1.0105972112567894,3.2912210500056056,1.0112926130947462,2.9595516552342858,2.0218898243515353,6.250772705239891
2025-03-11 23:43:35.600,60.48148148148148,0.0218,0.1068,1.0077666666666667,0.30333333333333334,-3.7800000000000002,-0.4588888888888889,-0.9714555555555555,-0.25880000000000003,0.10313333333333334,-0.5055555555555555,-2.8855555555555554,0.3888888888888889,0.55,1.013644481287421,3.8198154567278237,1.010613586324762,2.9552075818547587,2.024258067612183,6.7750230385825825
2025-03-11 23:43:35.700,59.59375,0.015809999999999998,0.10092000000000001,1.0078099999999999,0.532,1.7570000000000001,-1.1199999999999999,-0.9710111111111112,-0.2624888888888889,0.10096666666666666,-0.4666666666666667,-2.9244444444444446,0.35,0.55,1.012973740330913,2.1504587882589146,1.0109190187493435,2.9820551782989786,2.0238927590802565,5.132513966557893
2025-03-11 23:43:35.800,60.58620689655172,-0.00586,0.09945,1.00724,0.08399999999999999,-4.599,-0.9099999999999999,-0.97057,-0.25952000000000003,0.10432,-0.35,-2.9539999999999997,0.6020000000000001,0.58,1.0121546619464834,4.688918532028468,1.0100690163053216,3.0349662271597024,2.0222236782518053,7.72388475918817
2025-03-11 23:43:35.900,60.74193548387097,0.026366666666666667,0.10595555555555555,1.0057999999999998,0.5988888888888888,-4.3711111111111105,-2.3255555555555554,-0.97223,-0.25751,0.1036,-0.364,-2.9050000000000002,0.504,0.58,1.0117091582387683,4.987332843202756,1.0110764229275648,2.9707805371652753,2.022785581166333,7.958113380368031
2025-03-11 23:43:36.000,60.714285714285715,0.01153,0.10428,1.00611,1.134,-0.44800000000000006,-0.8960000000000001,-0.97123,-0.26098,0.10038,-0.763,-2.9539999999999997,0.161,0.54,1.0115654162732137,1.5131014506635039,1.0106801757727317,3.055193283574707,2.0222455920459455,4.5682947342382105
2025-03-11 23:43:36.100,60.28125,0.014922222222222222,0.10074444444444446,1.0074444444444444,0.4977777777777778,-1.8899999999999997,-0.8166666666666668,-0.9703555555555555,-0.26464444444444446,0.10425555555555556,-0.30333333333333334,-2.947777777777778,0.63,0.54,1.0125790954016602,2.1182131999621348,1.0111853475189587,3.029571741727138,2.023764442920619,5.147784941689273
2025-03-11 23:43:36.200,60.310344827586206,0.014879999999999999,0.10286,1.00641,0.518,-2.268,-0.756,-0.9723499999999999,-0.25587,0.09989,-0.5109999999999999,-2.877,0.49000000000000005,0.5,1.0117621667664787,2.4461569859679897,1.0104018960294956,2.962828040909563,2.0221640627959743,5.408985026877552
2025-03-11 23:43:36.300,60.064516129032256,0.019950000000000002,0.10366,1.00718,0.8470000000000001,-2.548,-1.029,-0.9705222222222223,-0.2622333333333333,0.10314444444444444,-0.6533333333333333,-3.0644444444444447,0.20222222222222222,0.5,1.0126968699961503,2.875509346185472,1.0106030285715677,3.139834075980984,2.0232998985677177,6.015343422166456
2025-03-11 23:43:36.400,60.0,0.0044444444444444444,0.10186666666666667,1.007077777777778,0.1711111111111111,-0.9877777777777779,-0.9566666666666666,-0.9706400000000001,-0.26199,0.10288,-0.32199999999999995,-2.989,0.623,0.42,1.012226368634025,1.3857110311058345,1.0106260753117349,3.0701683992901754,2.0228524439457596,4.45587943039601
2025-03-11 23:43:36.500,61.0625,0.01645,0.10451999999999999,1.0077099999999999,0.44800000000000006,-4.655,-0.42699999999999994,-0.97205,-0.25717999999999996,0.10110000000000001,-0.42000000000000004,-2.94,0.44800000000000006,0.37,1.0132494643472552,4.69596188229845,1.010566160575348,3.0034486844292845,2.0238156249226034,7.699410566727734
2025-03-11 23:43:36.600,60.82142857142857,0.02011111111111111,0.10547777777777777,1.0055888888888889,-1.4777777777777776,-0.20222222222222222,-1.018888888888889,-0.9700333333333333,-0.26236666666666664,0.10302222222222222,-0.6455555555555555,-2.963333333333333,0.25666666666666665,0.31,1.0113056075449458,1.8063376084097778,1.0101556879150662,3.0436760993132737,2.021461295460012,4.850013707723051
2025-03-11 23:43:36.700,60.28125,0.008790000000000001,0.10067,1.00699,0.651,-1.61,-0.826,-0.9711700000000001,-0.26137,0.10268999999999999,-0.413,-2.996,0.504,0.225,1.012047712857452,1.9230644814982154,1.0109553313079664,3.066039954077572,2.0230030441654185,4.989104435575787
2025-03-11 23:43:36.800,59.964285714285715,0.01567,0.10452999999999998,1.00654,0.497,-2.877,-0.7,-0.9717111111111111,-0.2584333333333333,0.10144444444444445,-0.56,-3.0955555555555554,0.43555555555555553,0.225,1.0120745236394402,3.0023554086749953,1.0105945015401627,3.175810579915964,2.022669025179603,6.178165988590959
2025-03-11 23:43:36.900,59.935483870967744,0.017844444444444444,0.10395555555555555,1.007311111111111,0.7855555555555556,-0.8322222222222222,-0.9333333333333333,-0.9714599999999999,-0.25966999999999996,0.10273000000000002,-0.546,-3.0309999999999997,0.329,0.17,1.0128182740730423,1.4767540313592518,1.010799927483179,3.0973081861513228,2.0236182015562214,4.5740622175105745
2025-03-11 23:43:37.000,60.51724137931034,0.01123,0.09994,1.00684,0.553,-2.2190000000000003,-0.721,-0.9714600000000001,-0.26216,0.10228999999999999,-0.294,-3.101,0.504,0.17,1.0118502369916211,2.397834648177393,1.0113978649868707,3.1554164542893544,2.023248101978492,5.5532511024667475
2025-03-11 23:43:37.100,61.064516129032256,0.016766666666666666,0.10507777777777777,1.006311111111111,0.30333333333333334,-2.6755555555555555,-0.9177777777777778,-0.9715444444444444,-0.2590222222222222,0.10091111111111112,-0.6066666666666667,-2.9322222222222223,0.3655555555555556,0.17,1.0119211989278145,2.844806617567884,1.010531628145048,3.0165547349809194,2.0224528270728626,5.861361352548803
2025-03-11 23:43:37.200,60.333333333333336,0.01628,0.10414999999999999,1.0077099999999999,0.784,-1.1969999999999998,-0.714,-0.97097,-0.26171,0.10279,-0.497,-2.975,0.45499999999999996,0.14,1.0132086186960707,1.5991438334308767,1.0108613401945887,3.050353913892616,2.024069958890659,4.649497747323493
2025-03-11 23:43:37.300,59.38709677419355,0.01284,0.10303,1.0066,-1.1340000000000001,-1.7289999999999999,-0.9380000000000001,-0.9712666666666667,-0.2596111111111111,0.10171111111111111,-0.4666666666666667,-2.9866666666666664,0.4744444444444444,0.14,1.0119405152972183,2.2705155802152075,1.0104959262231494,3.059910633730951,2.0224364415203677,5.330426213946159
2025-03-11 23:43:37.400,59.96774193548387,0.016255555555555558,0.10264444444444444,1.0075444444444444,0.39666666666666667,-2.5433333333333334,-0.7155555555555555,-0.97141,-0.25952000000000003,0.10136,-0.525,-3.122,0.441,0.14,1.0128898916430118,2.6716864789820134,1.0105750185414244,3.1964026654975743,2.023464910184436,5.868089144479588
2025-03-11 23:43:37.500,60.55172413793103,0.01689,0.10311999999999999,1.0074200000000002,0.45499999999999996,-1.624,-0.595,-0.97033,-0.26156999999999997,0.10330999999999999,-0.658,-3.129,0.392,0.14,1.012824793782222,1.7884143815122937,1.010263396298213,3.2213768795345885,2.023088190080435,5.009791261046882
2025-03-11 23:43:37.600,60.29032258064516,0.01933,0.10174000000000001,1.0064,0.609,-1.204,-1.008,-0.9716444444444444,-0.26113333333333333,0.10161111111111111,-0.32666666666666666,-3.251111111111111,0.5211111111111112,0.14,1.0117142069280236,1.6842093100324556,1.011241000997668,3.3087749028945272,2.0229552079256914,4.992984212926983
2025-03-11 23:43:37.700,60.6551724137931,0.0013666666666666664,0.10558888888888888,1.003111111111111,-0.7155555555555556,-1.7422222222222221,-1.0266666666666666,-0.97151,-0.25926,0.10278000000000001,-0.5740000000000001,-2.926,0.392,0.13,1.008653945845222,2.145087986338976,1.01074782023015,3.0074268070894097,2.0194017660753723,5.152514793428386
2025-03-11 23:43:37.800,59.193548387096776,0.025269999999999997,0.09907,1.00898,0.25200000000000006,-0.049000000000000016,-0.44800000000000006,-0.9707888888888889,-0.25914444444444446,0.1033111111111111,-0.4822222222222222,-3.01,0.4588888888888889,0.13,1.0141469707098671,0.5163419409654808,1.0100792521161672,3.082728869678716,2.0242262228260346,3.599070810644197
2025-03-11 23:43:37.900,59.3448275862069,0.005411111111111111,0.09558888888888889,1.0097777777777777,0.9488888888888888,-2.216666666666667,-1.431111111111111,-0.9706699999999999,-0.26166,0.10161,-0.5109999999999999,-2.912,0.39899999999999997,0.13,1.0143065001745262,2.803940128981641,1.0104408921851886,2.983297839639884,2.024747392359715,5.787237968621525
2025-03-11 23:43:38.000,62.375,0.02196,0.08555,1.01097,1.197,-3.9619999999999997,-4.494,-0.97156,-0.25834,0.10330999999999999,-0.497,-2.884,0.462,0.13,1.0148208635025198,6.109524449578706,1.0106143405374772,2.9627536178359484,2.025435204039997,9.072278067414654
2025-03-11 23:43:38.100,62.7037037037037,0.0121,0.11755555555555557,1.0032222222222222,2.1466666666666665,-11.254444444444445,-3.08,-0.9717111111111111,-0.2619444444444444,0.10111111111111111,-0.6533333333333333,-2.8155555555555556,0.2411111111111111,0.09,1.0101586735768144,11.864109639196032,1.0114646964784397,2.9004020581232237,2.021623370055254,14.764511697319255
2025-03-11 23:43:38.200,58.4375,0.03236,0.11322000000000002,0.9982,1.841,4.564,-0.504,-0.9692888888888889,-0.2672666666666667,0.1033,-0.05444444444444444,-2.52,0.6922222222222223,0.09,1.0051214742507495,4.9470590253199935,1.0107538331535368,2.613911972976354,2.0158753074042863,7.560970998296348
2025-03-11 23:43:38.300,58.93103448275862,-0.01184,0.10481,1.0124,0.33599999999999997,-3.192,1.435,-0.9734700000000001,-0.26771,0.09537,-0.217,-3.2340000000000004,1.295,0.09,1.0178796990312755,3.515819250189065,1.0141044925943283,3.490396825577287,2.031984191625604,7.006216075766352
2025-03-11 23:43:38.400,58.87096774193548,0.04158888888888889,0.10552222222222223,1.0073444444444446,2.2711111111111113,-10.515555555555556,-0.07777777777777775,-0.97043,-0.25259,0.10734999999999999,-0.784,-3.101,0.46900000000000003,0.06,1.0137097241394182,10.758294646629814,1.0084939838690166,3.2327724943150575,2.0222037080084347,13.991067140944871
2025-03-11 23:43:38.500,59.44827586206897,0.04548,0.1139,1.0002,0.10500000000000001,-1.218,-0.679,-0.9717100000000001,-0.25537,0.09916,-0.588,-2.681,1.7079999999999997,0.06,1.0076912624410315,1.3984241130644166,1.009587473476172,3.232764915672032,2.0172787359172037,4.631189028736449
2025-03-11 23:43:38.600,60.46875,0.0262,0.11091999999999999,1.00536,0.441,1.5959999999999999,-2.2399999999999998,-0.974588888888889,-0.2548333333333333,0.10632222222222222,-1.4777777777777776,-2.9788888888888887,-0.5288888888888889,0.06,1.0117995928048205,2.785551471432542,1.012950119730349,3.3670951322511855,2.0247497125351694,6.152646603683728
2025-03-11 23:43:38.700,63.035714285714285,0.014311111111111111,0.09714444444444444,1.0113111111111113,-0.8788888888888889,-3.017777777777778,-1.6722222222222223,-0.9713100000000001,-0.27768000000000004,0.09115,-3.0730000000000004,-5.061,-0.11199999999999996,0.02,1.016066934037539,3.5603027336949253,1.0143261906310022,5.921958628697097,2.0303931246685414,9.482261362392023
2025-03-11 23:43:38.800,60.74193548387097,0.04816,0.11151,0.9977600000000001,0.9940000000000001,-1.3370000000000002,-1.239,-0.9599666666666666,-0.2889,0.1265,6.191111111111111,-1.3144444444444445,0.7077777777777778,0.02,1.0051263021630665,2.0762287927875387,1.0104461693287332,6.36856109104485,2.0155724714918,8.444789883832389
2025-03-11 23:43:38.900,62.41379310344828,0.041277777777777774,0.1005,1.0117444444444446,0.6144444444444445,7.085555555555556,-5.934444444444444,-0.96761,-0.23633,0.10873999999999999,-0.6719999999999999,-1.1620000000000001,3.213,0.02,1.0175612639062424,9.262843535889525,1.0019707423872215,3.4821253567325807,2.019532006293464,12.744968892622106
2025-03-11 23:43:39.000,60.78125,-0.030420000000000003,0.1072,1.0121,0.266,-1.6030000000000002,0.02100000000000002,-0.97385,-0.26592,0.08788,0.266,0.03499999999999996,1.7850000000000001,0.02,1.0182159036275165,1.6250556913533765,1.0133213524346558,1.8050501378078119,2.0315372560621725,3.4301058291611883
2025-03-11 23:43:39.100,60.892857142857146,0.028088888888888892,0.09532222222222222,1.0078222222222222,0.9955555555555556,-9.605555555555556,0.8944444444444445,-0.9726888888888889,-0.2679111111111111,0.08801111111111111,2.2866666666666666,-1.921111111111111,3.453333333333333,0.02,1.012709703386579,9.698343119278636,1.0127418198651144,4.565635055147325,2.0254515232516934,14.263978174425961
2025-03-11 23:43:39.200,60.96875,0.04221,0.11623000000000001,1.0069599999999999,0.238,-7.448,3.9549999999999996,-0.98644,-0.21869,0.07681,3.325,-1.5050000000000001,4.739,0.0,1.0145242917742283,8.436312760916348,1.013305958632436,5.981535839564953,2.027830250406664,14.4178486004813
2025-03-11 23:43:39.300,55.714285714285715,0.05358,0.1387,1.02787,16.94,-3.073,1.386,-0.9755666666666668,-0.23858888888888888,0.08615555555555557,2.8,-3.43,1.7266666666666666,0.05,1.0385688437941898,17.27217198270096,1.0080068247613367,4.7525022648892845,2.0465756685555263,22.024674247590244
2025-03-11 23:43:39.400,54.41935483870968,0.010066666666666665,0.19177777777777777,0.9942222222222222,-0.2566666666666666,34.54888888888889,1.7733333333333334,-0.9719899999999999,-0.27465,0.11082999999999998,1.428,-3.864,1.484,0.05,1.0125995659626041,34.595322116518574,1.0161104622529973,4.378576937773276,2.0287100282156016,38.97389905429185
2025-03-11 23:43:39.500,56.724137931034484,0.02949999999999999,0.17231000000000002,1.0344000000000002,-0.8190000000000002,-30.232999999999997,-2.289,-0.97614,-0.21543,0.11106,3.157,0.378,1.701,0.11,1.0490683228941766,30.330588042436627,1.0057801489888334,3.6059581251035073,2.05484847188301,33.936546167540136
2025-03-11 23:43:39.600,56.516129032258064,0.024640000000000002,0.08392000000000001,0.95663,2.793,3.78,-4.13,-0.9753444444444445,-0.23136666666666666,0.09934444444444444,-2.5433333333333334,2.3800000000000003,4.254444444444444,0.11,0.9606199315546186,6.2566883412872665,1.0073215168927256,5.498476332158632,1.9679414484473443,11.755164673445899
2025-03-11 23:43:39.700,58.724137931034484,-0.033388888888888885,0.08081111111111111,0.9242333333333332,-0.20222222222222225,4.79111111111111,-2.3955555555555557,-0.9755900000000001,-0.21038,0.11594,-6.272,2.002,4.522,0.11,0.9283601176400735,5.360440833170899,1.0047276626529202,7.987144170477957,1.9330877802929938,13.347585003648856
2025-03-11 23:43:39.800,65.29032258064517,-0.08984,0.16474,1.03603,-1.7849999999999997,4.976999999999999,1.6309999999999998,-0.9678100000000001,-0.20809000000000002,0.10541,-9.898,3.969,-0.08400000000000003,0.07,1.0528858694559444,5.533255370936714,0.9955244408350806,10.664446586672934,2.048410310291025,16.19770195760965
2025-03-11 23:43:39.900,59.46875,0.010944444444444444,0.1548,1.0221444444444443,2.9322222222222223,-10.881111111111112,4.573333333333333,-0.9770111111111112,-0.2451888888888889,0.0415,-11.884444444444444,4.3244444444444445,-1.8977777777777776,0.02,1.033857865556402,12.161902974066901,1.0081619673788216,12.788369716269544,2.0420198329352237,24.950272690336448
2025-03-11 23:43:40.000,58.55172413793103,0.06304,0.14506999999999998,0.96616,3.9829999999999997,5.733,1.834,-0.99243,-0.2029,0.008490000000000001,-15.337,-0.44800000000000006,-1.6030000000000002,0.02,0.9790222122607842,7.217695892734745,1.0129944693827306,15.427050333748186,1.992016681643515,22.64474622648293
2025-03-11 23:43:40.100,60.516129032258064,-0.00775,0.11219000000000001,1.03685,-0.32900000000000007,27.65,-0.23100000000000004,-0.9863555555555555,-0.2557222222222222,0.0116,-4.371111111111111,-6.354444444444444,-3.678888888888889,0.02,1.0429307652476267,27.652922124072166,1.0190317448016917,8.545162374115543,2.0619625100493186,36.19808449818771
2025-03-11 23:43:40.200,62.06896551724138,-0.06815555555555555,0.10317777777777778,1.0002888888888888,3.6166666666666663,0.4977777777777778,-2.123333333333333,-1.00001,-0.30451,-0.010530000000000001,-1.1620000000000001,-4.585,-2.709,0.02,1.0079031177721471,4.223340495185251,1.045398116078272,5.450793520213364,2.0533012338504193,9.674134015398614
2025-03-11 23:43:40.300,66.96774193548387,-0.051770000000000004,0.14284,1.01626,-3.248,-7.266,-2.66,-0.9929,-0.2616222222222222,0.011111111111111112,7.2411111111111115,-9.877777777777776,-0.5988888888888889,0.02,1.0275542740410357,8.391654187345901,1.026849577080605,12.26225313112773,2.0544038511216405,20.65390731847363
2025-03-11 23:43:40.400,63.6551724137931,-0.03817777777777778,0.11404444444444445,1.0157999999999998,-0.04666666666666666,-17.461111111111112,-4.13,-1.02675,-0.20837,0.09231,8.267,-11.333,-3.5840000000000005,0.02,1.022894578157833,17.942950677420527,1.0517389198370477,14.478440316553437,2.0746334979948804,32.421390993973965
2025-03-11 23:43:40.500,62.71875,-0.0017199999999999989,0.15850999999999998,1.00322,2.114,-16.457,-0.9029999999999999,-0.9583299999999999,-0.19311,0.1728,22.694,-38.493,8.456,0.03,1.0156666514659227,16.616776281818325,0.9927475514953435,45.477825596657546,2.008414202961266,62.09460187847587
2025-03-11 23:43:40.600,59.629629629629626,0.0031555555555555555,0.14124444444444445,1.0113555555555556,7.077777777777778,-13.074444444444445,-2.9322222222222223,-0.8638666666666667,-0.2431222222222222,0.1223111111111111,7.303333333333334,-26.887777777777778,5.88,0.03,1.0211757979752412,15.15367819913578,0.9057229381092674,28.47570318016639,1.9268987360845085,43.629381379302174
2025-03-11 23:43:40.700,60.03125,0.028360000000000003,0.15295,0.9853400000000001,3.192,-9.478,0.693,-1.0383222222222224,-0.30823333333333336,0.1668777777777778,10.414444444444445,8.143333333333334,-3.3911111111111105,0.03,0.9975434364978801,10.025048478685775,1.0958873197798764,13.64822938816969,2.0934307562777565,23.673277866855464
2025-03-11 23:43:40.800,59.96551724137931,0.04246,0.17432,0.99143,1.092,-4.311999999999999,3.0309999999999997,-0.94786,-0.16265000000000002,0.14923,-3.367,0.25200000000000033,3.29,0.03,1.0075335026191439,5.382635878452117,0.9732230962117576,4.714264841945136,1.9807565988309015,10.096900720397253
2025-03-11 23:43:40.900,60.193548387096776,0.04544444444444445,0.15804444444444443,1.0092444444444444,2.9166666666666665,2.0611111111111113,3.1811111111111114,-0.98483,-0.23450000000000001,0.17065,-11.129999999999999,-1.6170000000000002,-8.155,0.03,1.0225544448060417,4.782738897120006,1.0266458987401643,13.892286132958821,2.049200343546206,18.675025030078828
2025-03-11 23:43:41.000,60.172413793103445,0.027610000000000003,0.15518,0.9921,0.35,-1.421,4.438000000000001,-0.9712099999999999,-0.23029000000000002,0.15665,-3.563,-2.387,2.856,0.06,1.0045424602773145,4.673070189928673,1.0103571500712012,5.152618169435806,2.0148996103485155,9.825688359364479
2025-03-11 23:43:41.100,59.483870967741936,0.0533,0.1595111111111111,1.006211111111111,1.75,-3.0566666666666666,1.8744444444444446,-0.9774555555555556,-0.22349999999999998,0.15464444444444445,-3.8966666666666665,-3.531111111111111,0.4044444444444444,0.06,1.0201693411837849,3.9898938690671653,1.0145375879108427,5.274119082725136,2.034706929094628,9.264012951792301
2025-03-11 23:43:41.200,60.689655172413794,0.045329999999999995,0.15860000000000002,0.9921099999999999,1.484,1.12,-2.352,-0.97338,-0.23677,0.15109,-3.668,-2.205,-2.205,0.06,1.0057290992111145,2.99809272705165,1.0130927131314291,4.814381995645963,2.0188218123425434,7.812474722697614
2025-03-11 23:43:41.300,61.625,0.030699999999999998,0.15879,1.00048,0.12600000000000003,-2.247,-1.358,-0.9670444444444445,-0.24976666666666666,0.15376666666666666,-2.0999999999999996,-3.0255555555555556,-0.77,0.06,1.013467801412556,2.6285069906697984,1.0105456610596177,3.7625638093928835,2.0240134624721735,6.391070800062682
2025-03-11 23:43:41.400,60.17857142857143,0.039733333333333336,0.15837777777777778,0.9961222222222221,0.6844444444444444,-0.5366666666666666,-1.1355555555555554,-0.97156,-0.24319000000000002,0.15048999999999998,-2.6879999999999997,-2.8,-0.28700000000000003,0.06,1.0094165343784214,1.430371185530197,1.0127770977860824,3.8920062949589376,2.0221936321645035,5.322377480489134
2025-03-11 23:43:41.500,61.15625,0.02708,0.16513,1.00483,1.2530000000000001,-0.02099999999999995,-1.4769999999999999,-0.96853,-0.25961,0.14977000000000001,-1.449,-3.101,0.595,0.05,1.0186680382735094,1.9370025813095861,1.0138435608613392,3.4741656552329223,2.032511599134849,5.411168236542508
2025-03-11 23:43:41.600,60.32142857142857,0.011555555555555555,0.16803333333333334,0.9928666666666667,1.5477777777777777,-2.022222222222222,0.16333333333333333,-0.9699666666666666,-0.2396888888888889,0.15234444444444445,-0.6066666666666667,-2.901111111111111,1.0266666666666666,0.05,1.007051612258819,2.5517986878297974,1.0106903223313861,3.1366438382292046,2.0177419345902052,5.688442526059002
2025-03-11 23:43:41.700,59.96875,0.049,0.15664,0.9990399999999999,-0.714,-2.961,-0.161,-0.97262,-0.23303,0.1505,-1.652,-2.6109999999999998,0.20299999999999999,0.1,1.0124317316244091,3.050120981207139,1.011406394729636,3.0963904792516077,2.023838126354045,6.146511460458747
2025-03-11 23:43:41.800,61.666666666666664,0.01804,0.16271,0.9968899999999999,-0.819,-2.786,-0.175,-0.9692666666666666,-0.24796666666666667,0.15046666666666664,-1.897777777777778,-2.8155555555555556,-0.031111111111111107,0.1,1.0102423757693002,2.9091548600925323,1.0117339357097135,3.3955679173713316,2.0219763114790137,6.304722777463864
2025-03-11 23:43:41.900,60.15625,0.03562222222222222,0.1615888888888889,1.0025111111111111,-0.031111111111111114,-0.8011111111111111,-0.35777777777777775,-0.9691699999999999,-0.25088,0.14787999999999998,-1.484,-2.87,0.252,0.1,1.0160750167333263,0.8779247415649316,1.0119781409200497,3.2407807701231506,2.028053157653376,4.118705511688082
2025-03-11 23:43:42.000,60.41379310344828,0.048799999999999996,0.15544,1.0022199999999999,1.302,1.463,-3.5769999999999995,-0.9691699999999999,-0.24756,0.14909,-0.35,-3.1149999999999998,0.637,0.1,1.0153757737901767,4.078051250291001,1.0113378617455195,3.198670661384194,2.026713635535696,7.276721911675194
2025-03-11 23:43:42.100,60.354838709677416,-0.0008300000000000011,0.16104000000000002,0.9958899999999999,0.875,-0.007000000000000073,-1.7080000000000002,-0.9710222222222222,-0.24314444444444444,0.15031111111111112,-0.668888888888889,-2.473333333333333,0.5444444444444445,0.03,1.008826775318736,1.9190982257299913,1.0122236941689504,2.6193911270643047,2.0210504694876867,4.538489352794296
2025-03-11 23:43:42.200,61.58620689655172,0.02608888888888889,0.1565888888888889,0.9980666666666667,-0.2022222222222222,-4.067777777777778,0.00777777777777776,-0.9709300000000001,-0.24559999999999998,0.14584999999999998,-0.35,-2.884,0.49000000000000005,0.03,1.0106125772807424,4.0728086586986105,1.0120754158658336,2.9461934763351847,2.022687993146576,7.019002135033795
2025-03-11 23:43:42.300,61.96774193548387,0.02636,0.16021999999999997,0.99825,-0.315,-1.876,-0.602,-0.9708,-0.24198888888888892,0.14966666666666667,-0.5444444444444445,-2.9166666666666665,0.35000000000000003,0.03,1.0113695469510637,1.9952455989175868,1.011637965606664,2.987618482592927,2.0230075125577276,4.982864081510513
2025-03-11 23:43:42.400,60.875,0.02547777777777778,0.1573,1.003177777777778,-0.08555555555555555,-2.216666666666667,-0.5755555555555555,-0.9698,-0.24694000000000002,0.14748,-0.693,-2.912,0.266,0.03,1.015754921714709,2.291766799159198,1.0115541280623592,3.0051204634756323,2.0273090497770685,5.29688726263483
2025-03-11 23:43:42.500,59.6551724137931,0.026250000000000002,0.15875,0.99655,1.029,-1.9600000000000002,-0.728,-0.97005,-0.24708999999999998,0.14909,-0.371,-3.143,0.504,0.03,1.0094565505756055,2.3303272302404228,1.012066350937526,3.204700610041443,2.0215229015131317,5.535027840281866
2025-03-11 23:43:42.600,60.806451612903224,0.02805,0.15631,1.0,1.001,-1.7289999999999999,-1.2109999999999999,-0.9708444444444445,-0.24502222222222222,0.14757777777777778,-0.49,-2.8777777777777778,0.43555555555555553,0.01,1.012531292652232,2.3362283706863933,1.0121037620645352,2.9515103896559323,2.024635054716767,5.287738760342325
2025-03-11 23:43:42.700,60.41379310344828,0.023355555555555556,0.15497777777777777,1.0032222222222222,-0.44333333333333336,-1.3844444444444446,-0.44333333333333336,-0.9677,-0.25917,0.14987,0.6020000000000001,-3.444,0.798,0.01,1.0153907724323383,1.5197944955295686,1.0129528102532712,3.5861321782667184,2.0283435826856095,5.1059266737962865
2025-03-11 23:43:42.800,60.935483870967744,0.02914,0.15797,0.99727,0.735,-1.3159999999999998,-1.162,-0.9729,-0.22853333333333334,0.15052222222222222,0.4588888888888889,-2.94,1.3222222222222222,0.01,1.010124305914871,1.903240657405153,1.0106526771483666,3.2561404480279945,2.0207769830632376,5.159381105433147
2025-03-11 23:43:42.900,61.55172413793103,0.0214,0.1567111111111111,1.0002,0.8788888888888889,-1.7577777777777779,-0.8633333333333334,-0.97087,-0.23845999999999998,0.15052,-0.679,-2.772,0.294,0.01,1.012628447331833,2.1465257602708085,1.010993570157595,2.869052282549065,2.023622017489428,5.0155780428198735
2025-03-11 23:43:43.000,61.25,0.023266666666666668,0.15755,0.9989333333333333,0.6533333333333333,-0.8983333333333333,-0.84,-0.9707833333333333,-0.24798333333333333,0.15145,-0.5133333333333333,-3.045,0.4666666666666666,0.01,1.011548884000285,1.3926403779232532,1.0133376122442554,3.123029601026684,2.0248864962445405,4.515669978949937
2025-03-11 23:43:43.100,60.23255813953488,0.023984615384615385,0.15593076923076923,1.0006538461538461,0.9584615384615385,-2.2023076923076923,-1.2007692307692308,-0.9706615384615385,-0.24066923076923075,0.15105384615384615,-0.5169230769230769,-2.9130769230769227,0.30692307692307697,0.01,1.013014208385318,2.685266176353812,1.0113964432038725,2.974462708182246,2.02441065158919,5.659728884536058
2025-03-11 23:43:43.200,60.0625,0.021859999999999997,0.15977,0.99949,0.119,-1.764,-0.5039999999999999,-0.9692333333333334,-0.24811111111111112,0.14846666666666666,-0.5288888888888889,-2.901111111111111,0.43555555555555553,0.06,1.0124152174873706,1.838443091313952,1.011441905900851,2.9809189485421737,2.023857123388222,4.819362039856125
2025-03-11 23:43:43.300,60.827586206896555,0.02509,0.15707,0.9978200000000002,0.665,-1.911,-0.595,-0.97151,-0.24034,0.15165,-0.301,-3.0309999999999997,0.588,0.06,1.0104183516741965,2.10906875184286,1.012221674436978,3.1021453866638806,2.0226400261111745,5.21121413850674
2025-03-11 23:43:43.400,61.41935483870968,0.023544444444444444,0.15724444444444444,0.9971444444444444,0.8011111111111111,-2.356666666666667,-0.8322222222222222,-0.97102,-0.24303,0.14975,-0.5599999999999999,-2.9050000000000002,0.364,0.13,1.0097411545833215,2.624547697658389,1.0121109048913564,2.980792008845971,2.0218520594746776,5.60533970650436
2025-03-11 23:43:43.500,60.206896551724135,0.02138,0.15797,1.00132,0.8470000000000001,-1.561,-1.1620000000000001,-0.9706400000000001,-0.24253999999999998,0.15,-0.462,-2.863,0.385,0.13,1.0139296660518422,2.122351054844603,1.0116657853263598,2.925480815182352,2.025595451378202,5.047831870026956
2025-03-11 23:43:43.600,59.935483870967744,0.025033333333333335,0.15681111111111112,0.9989444444444445,0.4511111111111112,-1.6722222222222223,-0.031111111111111114,-0.9706333333333332,-0.24483333333333335,0.1504111111111111,-0.30333333333333334,-3.0955555555555554,0.43555555555555553,0.13,1.0114872196088782,1.7322806632576306,1.0122726565676698,3.140729843621906,2.0237598761765483,4.873010506879536
2025-03-11 23:43:43.700,59.758620689655174,0.02376,0.15825,0.99835,0.595,-1.827,-0.616,-0.97035,-0.24312,0.14982,-0.539,-2.996,0.462,0.09,1.011093627019773,2.017773525448285,1.011500118289662,3.078957778210023,2.022593745309435,5.0967313036583075
2025-03-11 23:43:43.800,60.58064516129032,0.02474,0.15733,0.9988400000000001,0.609,-1.904,-1.246,-0.9705333333333334,-0.24306666666666665,0.15193333333333334,-0.6377777777777778,-2.947777777777778,0.3888888888888889,0.04,1.0114574346456702,2.355549405128239,1.0119783067503638,3.0409519708290182,2.023435741396034,5.396501375957257
2025-03-11 23:43:43.900,60.62068965517241,0.022066666666666665,0.15935555555555556,0.9862333333333333,0.8088888888888889,-2.2244444444444444,-0.7466666666666666,-0.96996,-0.24433,0.14984999999999998,-0.343,-2.9539999999999997,0.42699999999999994,0.04,0.9992683916956321,2.481927765286243,1.0114220548317108,3.0043458522613538,2.010690446527343,5.486273617547597
2025-03-11 23:43:44.000,60.46875,0.027610000000000003,0.15738,1.00053,0.8400000000000001,-1.512,-1.036,-0.9708399999999999,-0.24278,0.14981,-0.42700000000000005,-2.912,0.476,0.04,1.0132082991172149,2.0161944350682055,1.0118870836709004,2.98138373913859,2.0250953827881153,4.9975781742067955
2025-03-11 23:43:44.100,60.17857142857143,0.024411111111111113,0.15787777777777778,0.9976333333333334,0.7155555555555556,-1.2755555555555556,-1.0033333333333332,-0.9705666666666666,-0.24355555555555558,0.15166666666666667,-0.2644444444444444,-3.258888888888889,0.5366666666666666,0.04,1.0103432895998796,1.7736232706448232,1.0120878128226805,3.3133515909773443,2.0224311024225603,5.086974861622167
2025-03-11 23:43:44.200,60.3125,0.02171,0.16000999999999999,0.9997199999999999,0.63,-2.037,-0.9030000000000001,-0.9703899999999999,-0.24228999999999998,0.15016,-0.49000000000000005,-2.9189999999999996,0.385,0.11,1.0126769487847542,2.3155297450043695,1.0113897477233986,2.9847757034658393,2.024066696508153,5.300305448470208
2025-03-11 23:43:44.300,60.285714285714285,0.027350000000000003,0.15944,0.99831,0.462,-2.184,-0.784,-0.9704111111111112,-0.24316666666666664,0.1514,-0.5288888888888889,-3.0255555555555556,0.43555555555555553,0.16,1.0113317913523732,2.366,1.0118051750933472,3.1021635222080923,2.0231369664457204,5.468163522208092
2025-03-11 23:43:44.400,60.74193548387097,0.018166666666666668,0.16023333333333334,1.0123888888888888,0.2255555555555556,-1.6488888888888888,-0.42,-0.97059,-0.24276999999999999,0.15094999999999997,-0.38499999999999995,-2.8,0.42000000000000004,0.21,1.0251517015713174,1.7164235714249585,1.0118142732240931,2.8573807936640154,2.0369659747954105,4.573804365088974
2025-03-11 23:43:44.500,60.892857142857146,0.026750000000000003,0.15904000000000001,0.9984299999999999,0.77,-2.093,-0.6020000000000001,-0.9706300000000001,-0.24341,0.15104,-0.44800000000000006,-2.919,0.441,0.25,1.0113712221533693,2.309968181599045,1.0120198153198388,2.985924647408236,2.023391037473208,5.295892829007281
2025-03-11 23:43:44.600,59.84375,0.023719999999999998,0.1583,0.99946,2.0650000000000004,-1.218,-1.0710000000000002,-0.9701888888888889,-0.24155555555555555,0.1504111111111111,-0.5211111111111111,-3.0955555555555554,0.4511111111111111,0.21,1.0121965322999285,2.6257932134880693,1.0110583904448294,3.171359680361441,2.0232549227447576,5.7971528938495105
2025-03-11 23:43:44.700,59.793103448275865,0.0234875,0.1587875,1.0003375,0.97125,-1.925,-0.7,-0.9705299999999999,-0.24516999999999997,0.15122,-0.28,-3.178,0.476,0.16,1.0131338740357811,2.2669255749803523,1.0123755717123957,3.225625520732374,2.0255094457481766,5.492551095712726
2025-03-11 23:43:44.800,60.12903225806452,0.0228,0.15945454545454546,0.9987090909090909,0.6045454545454546,-2.049090909090909,-0.9290909090909092,-0.9713888888888889,-0.24127777777777779,0.15145555555555557,-0.42000000000000004,-2.8855555555555554,0.43555555555555553,0.12,1.0116152629980326,2.3296906828345154,1.0122994244860632,2.948311297365466,2.023914687484096,5.278001980199981
2025-03-11 23:43:44.900,61.4375,0.0249,0.15886666666666666,0.9859777777777777,0.3733333333333333,-2.022222222222222,-0.6066666666666667,-0.97037,-0.24272,0.15188,-0.567,-3.045,0.441,0.08,0.9990049079205681,2.1440160769620187,1.0117304333170967,3.128577152636642,2.0107353412376647,5.272593229598661
2025-03-11 23:43:45.000,60.241379310344826,0.024390000000000002,0.15894,1.00081,0.6020000000000001,-1.6309999999999998,-0.9099999999999999,-0.97073,-0.24258000000000002,0.15164,-0.462,-2.863,0.44800000000000006,0.08,1.0136456243678065,1.962311137409152,1.0120061654456458,2.934436402445962,2.0256517898134523,4.896747539855114
2025-03-11 23:43:45.100,61.0,0.02084,0.15875,0.99792,0.35,-1.9460000000000002,-0.553,-0.9705222222222223,-0.24339999999999998,0.15047777777777777,-0.4666666666666667,-2.9711111111111115,0.42777777777777776,0.12,1.0106830336460586,2.0531013126487454,1.0118302750126125,3.0378072419931743,2.022513308658671,5.09090855464192
2025-03-11 23:43:45.200,59.93103448275862,0.02937777777777778,0.15644444444444444,0.9998,0.4977777777777777,-1.7422222222222221,-1.0344444444444445,-0.97097,-0.24228,0.15182,-0.483,-2.982,0.40599999999999997,0.12,1.0123921957545363,2.086431474143423,1.0121915093992837,3.048023785996428,2.02458370515382,5.134455260139851
2025-03-11 23:43:45.300,59.8125,0.02119,0.16036,0.98683,0.539,-1.7710000000000001,-0.623,-0.9708,-0.24444444444444446,0.15133333333333332,-0.5211111111111112,-3.1655555555555552,0.4822222222222222,0.12,0.9999988972993921,1.953225793399217,1.01247592771262,3.244200523555385,2.012474825012012,5.197426316954602
2025-03-11 23:43:45.400,60.32142857142857,0.029555555555555557,0.15887777777777778,1.0003444444444445,0.8555555555555556,-2.216666666666667,-1.088888888888889,-0.97098,-0.24079,0.15139,-0.217,-3.066,0.504,0.12,1.0133137158188803,2.613668959929464,1.0117810615938607,3.114716841062763,2.025094777412741,5.728385800992227
2025-03-11 23:43:45.500,61.5,0.019039999999999998,0.16071,0.99688,-0.238,-1.778,-0.30100000000000005,-0.9702,-0.24214000000000002,0.15095999999999998,-0.5740000000000001,-2.9259999999999997,0.42000000000000004,0.06,1.0099306709373668,1.8189362275791858,1.0112906314210568,3.011204410198683,2.0212213023584233,4.830140637777869
2025-03-11 23:43:45.600,60.111111111111114,0.02863333333333333,0.15861111111111112,0.998411111111111,0.9644444444444444,-1.9444444444444444,-0.9177777777777778,-0.9705777777777777,-0.2424222222222222,0.15184444444444445,-0.4666666666666667,-3.1033333333333335,0.4122222222222222,0.0,1.0113367881847286,2.3565511522844846,1.0118529991317176,3.1651828882466466,2.023189787316446,5.521734040531131
2025-03-11 23:43:45.700,60.4375,0.02035,0.15823,1.0008,0.259,-1.456,-0.5810000000000001,-0.9712111111111111,-0.24297777777777776,0.15066666666666664,-0.4744444444444444,-2.9866666666666664,0.4277777777777778,0.06,1.0134354914842878,1.5888920668188888,1.0124177335882412,3.0542215269692647,2.025853225072529,4.643113593788153
2025-03-11 23:43:45.800,59.827586206896555,0.02844,0.15650999999999998,0.9992599999999999,0.5740000000000001,-2.037,0.966,-0.97057,-0.24184999999999998,0.15175,-0.5389999999999999,-3.059,0.42699999999999994,0.1,1.0118422610763003,2.326370778702312,1.0116944251600877,3.1353358671759555,2.0235366862363877,5.461706645878268
2025-03-11 23:43:45.900,60.38709677419355,0.0213,0.15583333333333332,0.9998111111111112,0.1322222222222222,-2.1155555555555554,-0.5522222222222222,-0.97058,-0.24381,0.15144,-0.40599999999999997,-3.038,0.504,0.1,1.0121067017261631,2.1904354378541737,1.012127919830295,3.106170632788868,2.024234621556458,5.296606070643042
2025-03-11 23:43:46.000,61.03448275862069,0.027190000000000002,0.15942,0.99832,0.784,-1.9669999999999999,-1.0779999999999998,-0.9711299999999999,-0.2426,0.15217,-0.483,-3.038,0.413,0.1,1.011334195456675,2.376095326370556,1.0124741704359672,3.103756111552581,2.0238083658926422,5.479851437923138
2025-03-11 23:43:46.100,60.12903225806452,0.02475,0.15679,1.00002,0.546,-2.52,-1.155,-0.9711222222222222,-0.24334444444444447,0.15252222222222223,-0.3733333333333333,-3.1655555555555552,0.4744444444444444,0.1,1.0125392175120922,2.8253390946928834,1.0126983348497258,3.222610321455359,2.0252375523618182,6.047949416148242
2025-03-11 23:43:46.200,60.275862068965516,0.025644444444444445,0.15853333333333333,1.0010000000000001,0.1322222222222222,-2.1155555555555554,-0.33444444444444443,-0.9714700000000001,-0.24255,0.15222,-0.553,-2.975,0.378,0.035,1.0138005007439295,2.145905662211438,1.0127958292765624,3.049478316040303,2.026596330020492,5.195383978251741
2025-03-11 23:43:46.300,60.03225806451613,0.02691,0.15665,0.9981899999999999,0.308,-1.274,-0.392,-0.9704777777777777,-0.2424222222222222,0.15333333333333332,-0.3733333333333333,-3.072222222222222,0.5133333333333333,0.035,1.0107653766824425,1.368065787891796,1.0119816016602106,3.137106672015623,2.022746978342653,4.505172459907419
2025-03-11 23:43:46.400,60.172413793103445,0.024733333333333333,0.1563222222222222,0.9995888888888889,0.39666666666666667,-1.75,-0.8788888888888889,-0.97101,-0.24261,0.15139,-0.511,-2.87,0.434,0.035,1.0120406719734119,1.998071601183699,1.0122445180389963,2.947266021247488,2.0242851900124084,4.945337622431187
2025-03-11 23:43:46.500,60.4375,0.02754,0.15655,0.99918,0.826,-2.31,-0.8540000000000001,-0.9710699999999999,-0.24276,0.15265,-0.539,-3.003,0.40599999999999997,0.07,1.0117445460688186,2.597631998571006,1.0125272267944205,3.077883363612078,2.024271772863239,5.675515362183084
2025-03-11 23:43:46.600,60.392857142857146,0.02737777777777778,0.15615555555555555,1.0016444444444443,0.43555555555555553,-1.6566666666666667,-0.8555555555555556,-0.9697111111111111,-0.24488888888888885,0.1524111111111111,-0.4744444444444444,-2.8311111111111114,0.4044444444444444,0.07,1.0141132546877263,1.9147397721522705,1.0117012176051305,2.8989416970616992,2.025814472292857,4.81368146921397
2025-03-11 23:43:46.700,59.8125,0.02377,0.15850999999999998,0.9994799999999999,0.721,-1.89,-0.588,-0.97126,-0.24039000000000002,0.15206,-0.511,-3.157,0.441,0.04,1.0122503165719434,2.106581353757789,1.012055128587371,3.228351127123566,2.0243054451593143,5.3349324808813545
2025-03-11 23:43:46.800,59.81481481481482,0.0264,0.15562,0.99882,0.658,-1.8830000000000002,-0.672,-0.9714888888888888,-0.24383333333333335,0.15360000000000001,-0.4044444444444444,-3.2511111111111113,0.4588888888888889,0.04,1.011215079397059,2.104812818280999,1.0133303092669301,3.30815322767519,2.024545388663989,5.412966045956189
2025-03-11 23:43:46.900,60.4375,0.027866666666666668,0.15686666666666665,0.9986222222222223,0.4977777777777778,-2.0611111111111113,-1.1977777777777776,-0.9722099999999999,-0.24175,0.15150999999999998,-0.511,-2.856,0.441,0.0,1.0112517218468762,2.435289168319305,1.0132080865745199,2.9346785173166747,2.024459808421396,5.36996768563598
2025-03-11 23:43:47.000,60.793103448275865,0.026879999999999998,0.15685,1.0001,0.5740000000000001,-1.764,-0.798,-0.9713099999999999,-0.24293,0.15366,-0.504,-3.0309999999999997,0.42699999999999994,0.0,1.0126818191811284,2.0193999108646112,1.0129508855813294,3.1021453866638806,2.025632704762458,5.121545297528492
2025-03-11 23:43:47.100,60.225806451612904,0.022555555555555558,0.15635555555555555,0.9996888888888888,0.63,-1.5166666666666666,-0.7466666666666666,-0.9702,-0.24392222222222223,0.15203333333333335,-0.5911111111111111,-2.908888888888889,0.39666666666666667,0.0,1.0120937147356501,1.8040756328072525,1.011879550607814,2.9947272593718264,2.0239732653434643,4.798802892179079
2025-03-11 23:43:47.200,60.275862068965516,0.026119999999999997,0.15611999999999998,0.99899,0.39899999999999997,-1.666,-0.6930000000000001,-0.97076,-0.24159999999999998,0.15219,-0.44799999999999995,-3.129,0.441,0.0,1.0114527813496783,1.847973484658262,1.0118830632538522,3.191524087328811,2.0233358446035306,5.039497571987074
2025-03-11 23:43:47.300,59.25806451612903,0.0283,0.15645,0.99938,0.686,-1.6800000000000002,-1.022,-0.9699899999999999,-0.24341,0.1528,-0.5599999999999999,-2.94,0.371,0.0,1.0119475662799928,2.0826617584235803,1.0116703357319516,3.0157654086483583,2.0236179020119445,5.0984271670719385
2025-03-11 23:43:47.400,60.03125,0.02493333333333333,0.15844444444444444,0.9989222222222222,0.6222222222222222,-1.9444444444444444,-1.0422222222222222,-0.9712222222222222,-0.24208888888888888,0.15246666666666664,-0.4433333333333333,-3.033333333333333,0.4744444444444444,0.0,1.0117173118691813,2.2922154898376923,1.0124849231006716,3.1020562674490213,2.024202234969853,5.394271757286713
2025-03-11 23:43:47.500,60.172413793103445,0.02758,0.15645,0.99992,0.826,-1.295,-0.9099999999999999,-0.9711299999999999,-0.24175,0.15341,-0.45499999999999996,-3.213,0.45499999999999996,0.01,1.0124609944585519,1.7853293813747646,1.012457983078804,3.276800115966795,2.024918977537356,5.06212949734156
2025-03-11 23:43:47.600,60.903225806451616,0.023710000000000002,0.15723,1.01085,0.42699999999999994,-2.7439999999999998,-0.7140000000000001,-0.9703666666666666,-0.24348888888888887,0.15116666666666667,-0.5211111111111112,-3.033333333333333,0.43555555555555553,0.06,1.0232796096375614,2.8673438928736816,1.011805153130401,3.108436350194399,2.0350847627679625,5.975780243068081
2025-03-11 23:43:47.700,59.793103448275865,0.02532222222222222,0.15815555555555555,0.9996888888888888,0.5833333333333334,-1.5244444444444443,-0.77,-0.96998,-0.24184999999999998,0.15295,-0.5740000000000001,-2.933,0.378,0.06,1.0124387730916173,1.8047461433606966,1.0113092135445023,3.012449003717739,2.0237479866361197,4.8171951470784355
2025-03-11 23:43:47.800,59.74193548387097,0.027129999999999998,0.15583,1.00123,0.21000000000000002,-2.121,-0.44800000000000006,-0.9709444444444445,-0.24444444444444446,0.15225555555555553,-0.4277777777777778,-2.9244444444444446,0.49,0.06,1.01364714703885,2.177945132458575,1.0127526622106777,2.9959087328893164,2.0263998092495275,5.173853865347891
2025-03-11 23:43:47.900,58.758620689655174,0.02488888888888889,0.15707777777777776,0.9969777777777777,0.3422222222222222,-1.6644444444444444,-0.6144444444444445,-0.9710599999999999,-0.23908000000000001,0.15133,-0.469,-3.052,0.49000000000000005,0.06,1.0095828715090427,1.8069403236779384,1.0114432949503396,3.126462057981833,2.0210261664593823,4.933402381659771
2025-03-11 23:43:48.000,59.09375,0.028360000000000003,0.15649,0.99954,0.665,-2.114,-0.791,-0.9706400000000001,-0.24383,0.15309,-0.518,-2.94,0.35,0.02,1.0121134429005476,2.3530622601197786,1.012438455709778,3.005731857634676,2.0245518986103255,5.358794117754455
2025-03-11 23:43:48.100,60.55555555555556,0.025280000000000004,0.15575,0.99976,0.32199999999999995,-1.61,-0.826,-0.9712222222222222,-0.24150000000000002,0.1521,-2.325555555555556,-2.963333333333333,0.5444444444444445,0.02,1.0121349704955362,1.8379499449114494,1.0122891212189684,3.8060442508602255,2.0244240917145047,5.643994195771675
2025-03-11 23:43:48.200,60.53125,0.029444444444444447,0.15561111111111112,1.0001888888888888,0.56,-2.356666666666667,-0.8711111111111111,-0.9708,-0.24296666666666666,0.15274444444444446,-0.49,-2.893333333333333,0.39666666666666667,0.02,1.0126497946806026,2.5741624551840183,1.0123321127079556,2.9612197186669924,2.0249819073885584,5.53538217385101
2025-03-11 23:43:48.300,60.06896551724138,0.02581,0.15572999999999998,0.99949,0.329,-1.6170000000000002,-0.798,-0.9701299999999999,-0.24262,0.15192,-0.413,-2.975,0.504,0.02,1.0118785742864604,1.832957719097743,1.011482262671966,3.0455229436009836,2.0233608369584264,4.878480662698727
2025-03-11 23:43:48.400,59.064516129032256,0.027555555555555555,0.15507777777777776,0.9987777777777779,0.3966666666666667,-2.3800000000000003,-0.5444444444444444,-0.97083,-0.24264000000000002,0.15359,-0.56,-3.129,0.39899999999999997,0.08,1.0111209003799622,2.473492307958702,1.0124104634978839,3.203660718615503,2.0235313638778463,5.677153026574205
2025-03-11 23:43:48.500,59.96551724137931,0.02742,0.15558,1.0000399999999998,0.28700000000000003,-1.7990000000000002,-0.616,-0.97096,-0.24278,0.15234999999999999,-0.483,-2.996,0.476,0.08,1.0124411066328745,1.9230772215384386,1.0123813374909674,3.071787915856171,2.024822444123842,4.994865137394609
2025-03-11 23:43:48.600,60.25806451612903,0.029244444444444444,0.15503333333333333,0.9990444444444445,0.6844444444444444,-2.45,-0.7777777777777778,-0.9705333333333334,-0.2415888888888889,0.15296666666666667,-0.43555555555555553,-3.072222222222222,0.4433333333333333,0.14,1.0114249225476983,2.660056854493115,1.0117800865093116,3.1344540942779493,2.02320500905701,5.794510948771064
2025-03-11 23:43:48.700,60.172413793103445,0.02494,0.15444,1.0021200000000001,0.665,-3.2969999999999997,0.14,-0.9706400000000001,-0.24419,0.15222,-0.434,-2.968,0.462,0.14,1.0142574681016652,3.3663086608331088,1.0123940409247776,3.0349339366780295,2.0266515090264425,6.401242597511138
2025-03-11 23:43:48.800,60.5625,0.043930000000000004,0.15577000000000002,0.9974700000000001,0.21000000000000002,-2.6109999999999998,-0.336,-0.9717111111111111,-0.23820000000000002,0.15333333333333332,0.08555555555555555,-3.2355555555555555,0.63,0.18,1.0105149868755041,2.640893220105652,1.0121624546326053,3.297429226863382,2.0226774415081095,5.938322446969034
2025-03-11 23:43:48.900,60.07142857142857,0.029233333333333333,0.15388888888888888,0.9993111111111111,0.7077777777777778,-1.8277777777777777,-1.1355555555555557,-0.9703899999999999,-0.242,0.15353,-0.735,-2.996,0.28700000000000003,0.18,1.0115132597704086,2.2652168565961643,1.0118261772656407,3.0981623585603124,2.023339437036049,5.363379215156477
2025-03-11 23:43:49.000,60.0625,0.03699,0.15635,1.00055,0.6719999999999999,-1.351,-0.966,-0.97044,-0.24223,0.1537,-0.46900000000000003,-2.8560000000000003,0.462,0.12,1.0133675962354431,1.7916308213468533,1.0119549676245478,2.9308942321414473,2.0253225638599908,4.722525053488301
2025-03-11 23:43:49.100,60.607142857142854,0.029322222222222225,0.1547777777777778,0.9992777777777779,0.7855555555555556,-0.9333333333333333,-0.7388888888888889,-0.9718,-0.2400888888888889,0.15263333333333332,-0.5833333333333334,-3.072222222222222,0.3655555555555556,0.12,1.0116185201796033,1.4262417158738436,1.012588193202126,3.148405632171839,2.024206713381729,4.574647348045683
2025-03-11 23:43:49.200,61.0625,0.03049,0.15187,0.99788,0.6020000000000001,-1.533,-0.602,-0.9703799999999999,-0.24295999999999998,0.15279,-0.434,-2.8,0.21000000000000002,0.12,1.0098309915030337,1.7535384227327326,1.0119346273845953,2.8412067858570236,2.021765618887629,4.594745208589757
2025-03-11 23:43:49.300,60.57142857142857,0.02841,0.15474,0.99855,1.064,-1.7149999999999999,-0.875,-0.9703666666666666,-0.2400888888888889,0.15263333333333332,-0.5211111111111111,-2.9788888888888887,0.3655555555555556,0.05,1.0108677946200484,2.199760441502665,1.011212676339712,3.0461396334814768,2.0220804709597604,5.245900074984142
2025-03-11 23:43:49.400,60.645161290322584,0.02776666666666667,0.15532222222222222,1.0014666666666665,0.6533333333333333,-1.75,-1.0033333333333332,-0.97058,-0.24434,0.15314,-0.42699999999999994,-2.947,0.476,0.05,1.0138202330483799,2.1203825650627817,1.0125114476389885,3.0155785514557563,2.0263316806873686,5.135961116518538
2025-03-11 23:43:49.500,60.142857142857146,0.02914,0.15499000000000002,1.0004300000000002,0.497,-1.7149999999999999,-1.232,-0.9712099999999999,-0.23945,0.15306999999999998,1.4560000000000002,-3.066,0.476,0.05,1.0127838982724795,2.1693450624554864,1.0119365550764532,3.4273704205994426,2.024720453348933,5.596715483054929
2025-03-11 23:43:49.600,61.09090909090909,0.02747,0.15733,0.9992300000000001,0.21000000000000002,-2.121,-0.588,-0.9712222222222222,-0.24373333333333333,0.15317777777777777,-0.63,-2.862222222222222,0.32666666666666666,0.05,1.0119130015470699,2.210991858872393,1.0129866604852147,2.948885748972623,2.0248996620322846,5.159877607845016
2025-03-11 23:43:49.700,61.03448275862069,0.034555555555555555,0.15394444444444444,0.9982222222222222,0.4511111111111111,-1.9911111111111113,-0.4588888888888889,-0.9706300000000001,-0.24161000000000002,0.15406,-0.45500000000000007,-2.968,0.434,0.05,1.010613963555488,2.092511338966579,1.0120437108149036,3.033876233467674,2.0226576743703917,5.126387572434252
2025-03-11 23:43:49.800,59.774193548387096,0.02319,0.1581,0.99787,0.882,-2.408,-1.134,-0.9706333333333332,-0.24237777777777778,0.15155555555555555,-0.4822222222222222,-2.9166666666666665,0.42,0.04,1.0105829619580968,2.803987161168895,1.0118523317945285,2.9859475407396863,2.0224352937526255,5.789934701908582
2025-03-11 23:43:49.900,60.58064516129032,0.033822222222222226,0.15322222222222223,1.0012555555555556,0.04666666666666668,-1.75,-0.3577777777777778,-0.96998,-0.24392999999999998,0.15401,-0.462,-2.863,0.483,0.04,1.0134760380145305,1.7868079684312421,1.011969429083705,2.939983333286092,2.025445467098235,4.726791301717334
2025-03-11 23:43:50.000,59.689655172413794,0.03736,0.15331999999999998,1.00167,0.7769999999999999,-2.513,-0.658,-0.9713200000000001,-0.24209,0.15152,-0.343,-2.912,0.5740000000000001,0.04,1.0140244478808191,2.7114317251223565,1.0124368725505803,2.98778663896872,2.0264613204313995,5.6992183640910765
2025-03-11 23:43:50.100,60.16129032258065,0.028600000000000004,0.15564,0.9967499999999999,0.441,-1.652,1.2810000000000001,-0.9705666666666666,-0.23954444444444445,0.15475555555555556,1.6255555555555556,-3.2511111111111113,0.5366666666666666,0.04,1.0092335369477174,2.1364798150228332,1.0115979820481802,3.674257126562969,2.0208315189958976,5.810736941585802
2025-03-11 23:43:50.200,60.827586206896555,0.030588888888888888,0.15695555555555554,0.9974666666666666,0.2644444444444444,-1.921111111111111,-1.0655555555555556,-0.97144,-0.24272999999999997,0.15236,-0.644,-2.996,0.259,0.04,1.0102031863216037,2.212692343595785,1.0128312278459823,3.075359003433583,2.023034414167586,5.288051347029368
2025-03-11 23:43:50.300,59.935483870967744,0.03441,0.15597,0.9984500000000001,0.041999999999999996,-1.043,-0.77,-0.9696555555555556,-0.24400000000000002,0.1548,-0.43555555555555553,-2.9244444444444446,0.3888888888888889,0.03,1.0111444464071393,1.2971171882293442,1.011795896621326,2.982166748945893,2.0229403430284654,4.279283937175237
2025-03-11 23:43:50.400,59.275862068965516,0.029177777777777778,0.15116666666666667,1.0034888888888889,-1.4933333333333334,0.015555555555555607,0.4977777777777778,-0.9709099999999999,-0.24003999999999998,0.15244,-0.308,-2.779,0.462,0.03,1.015230345266835,1.5741884054338824,1.0116933247283981,2.8339281924565416,2.026923669995233,4.408116597890424
2025-03-11 23:43:50.500,59.3125,0.02751,0.14709,0.9997199999999999,1.295,-1.582,-1.106,-0.97034,-0.24165999999999999,0.15298,-0.525,-3.0100000000000002,0.392,0.03,1.0108572335399297,2.32443218872911,1.0116136375118714,3.080485189057075,2.022470871051801,5.404917377786185
2025-03-11 23:43:50.600,60.107142857142854,0.031069999999999997,0.15104,1.0010400000000002,0.763,-0.728,-2.0439999999999996,-0.9710111111111112,-0.24234444444444442,0.154,-0.6377777777777778,-2.901111111111111,0.3422222222222222,0.03,1.012847228411077,2.3000193477447093,1.012575630584857,2.990037160675804,2.0254228589959338,5.290056508420513
2025-03-11 23:43:50.700,60.806451612903224,0.019266666666666668,0.15365555555555555,0.9993777777777778,0.4977777777777778,-2.232222222222222,-0.7933333333333333,-0.9704222222222223,-0.24348888888888887,0.1526888888888889,-0.25666666666666665,-3.0955555555555554,0.49,0.03,1.0113046904437752,2.4207388424218497,1.0120869652283766,3.1445893174321893,2.023391655672152,5.5653281598540385
2025-03-11 23:43:50.800,60.93103448275862,0.030210000000000004,0.15233999999999998,1.00146,0.336,-2.779,-0.693,-0.9707699999999999,-0.24073000000000003,0.15245999999999998,-0.63,-2.758,0.413,0.03,1.0134309307002625,2.8837451343695406,1.0117259398671163,2.8590265825976506,2.025156870567379,5.742771716967191
2025-03-11 23:43:50.900,59.903225806451616,0.02348888888888889,0.15555555555555556,0.9975444444444445,1.088888888888889,-1.0966666666666667,-0.8788888888888889,-0.97043,-0.24278,0.15293,-0.392,-2.961,0.42699999999999994,0.03,1.0098733472111279,1.7778645812141607,1.011960522056073,3.0172030094111992,2.021833869267201,4.79506759062536
2025-03-11 23:43:51.000,59.607142857142854,0.03222,0.14859,1.0021499999999999,0.833,-1.6170000000000002,-0.938,-0.9706699999999999,-0.24069000000000002,0.15284,-0.546,-2.94,0.42699999999999994,0.03,1.0136181425961157,2.0465634610243586,1.0116778096805326,3.020603416537828,2.0252959522766485,5.067166877562187
2025-03-11 23:43:51.100,60.0625,0.01991,0.15372,0.9981500000000001,1.4,-0.553,-2.464,-0.9708333333333332,-0.24443333333333334,0.15102222222222222,1.5011111111111113,-3.0255555555555556,0.3888888888888889,0.07,1.010113691125905,2.8874045438767326,1.0124587533131875,3.3997875750634123,2.0225724444390925,6.287192118940145
2025-03-11 23:43:51.200,59.758620689655174,0.02337777777777778,0.15447777777777777,1.0019555555555555,-0.35000000000000003,-1.5166666666666666,0.21,-0.9707800000000001,-0.24203999999999998,0.15448,-0.504,-3.003,0.483,0.07,1.0140635283992958,1.5706297392376656,1.0123543057645383,3.083068925599945,2.0264178341638344,4.653698664837611
2025-03-11 23:43:51.300,60.83870967741935,0.025230000000000002,0.15155999999999997,1.0006499999999998,1.022,-3.0029999999999997,-0.798,-0.9705299999999999,-0.24115999999999999,0.15338000000000002,-0.364,-3.0100000000000002,0.483,0.07,1.0123771080975703,3.270977988308695,1.0117371451617263,3.070160419261508,2.0241142532592966,6.341138407570203
2025-03-11 23:43:51.400,60.10344827586207,0.024722222222222222,0.1572,0.9968222222222222,0.6455555555555555,-2.6133333333333333,-0.8322222222222222,-0.9712222222222222,-0.24112222222222224,0.15275555555555556,-0.5755555555555555,-2.9244444444444446,0.30333333333333334,0.07,1.0094441891395751,2.817595945763027,1.0122977777021644,2.9959390209555252,2.0217419668417396,5.813534966718552
2025-03-11 23:43:51.500,59.40625,0.027960000000000002,0.15357,1.00211,1.26,-1.316,-0.791,-0.97005,-0.24375,0.15454,-0.35,-3.129,0.39899999999999997,0.03,1.0141942410603602,1.9862368942298902,1.0120739481875818,3.173695322490803,2.0262681892479417,5.159932216720693
2025-03-11 23:43:51.600,60.392857142857146,0.023155555555555554,0.1548,0.9981333333333333,1.018888888888889,-2.1544444444444446,-1.0344444444444445,-0.9711666666666667,-0.24144444444444446,0.15306666666666666,-0.11666666666666664,-3.0644444444444443,0.5755555555555556,0.03,1.0103313173727702,2.5980455617137936,1.0123682722418634,3.120207535041282,2.022699589614634,5.718253096755076
2025-03-11 23:43:51.700,59.9375,0.03065,0.15275,1.00085,0.45499999999999996,-1.722,-0.9870000000000001,-0.97072,-0.23826,0.15275,-0.637,-2.877,0.371,0.03,1.0129031086436648,2.036290254359628,1.0111368396512908,2.969939224967406,2.0240399482949556,5.006229479327034
2025-03-11 23:43:51.800,60.535714285714285,0.02138,0.15814,1.00053,0.749,-1.8059999999999998,-0.441,-0.9711888888888889,-0.24373333333333333,0.1532888888888889,-0.8400000000000001,-2.8311111111111114,0.37333333333333335,0.03,1.0131760187154055,2.0042749312407215,1.0129715095380531,2.976603416855287,2.0261475282534587,4.980878348096009
2025-03-11 23:43:51.900,60.32258064516129,0.0283,0.15481111111111112,0.9975666666666666,0.33444444444444443,-2.9322222222222223,-0.25666666666666665,-0.9712,-0.24169999999999997,0.15211,-0.406,-3.045,0.441,0.03,1.0099042650508518,2.9623737145558393,1.0123170363576817,3.103440349032022,2.0222213014085337,6.065814063587862
2025-03-11 23:43:52.000,60.464285714285715,0.02918,0.15598,1.00112,0.546,-1.722,-0.784,-0.9707699999999999,-0.24306,0.15272999999999998,-0.532,-2.835,0.504,0.05,1.0136185116699479,1.9692780402980175,1.0123235695171775,2.9281845911759046,2.025942081187125,4.897462631473922
2025-03-11 23:43:52.100,59.21875,0.02744,0.15611,0.99971,0.994,-1.9669999999999999,-0.665,-0.9708333333333334,-0.24014444444444447,0.15267777777777777,-0.42000000000000004,-2.971111111111111,0.49,0.05,1.0121972978624276,2.3020317113367486,1.0116803937686065,3.0403949142451707,2.023877691631034,5.342426625581919
2025-03-11 23:43:52.200,59.733333333333334,0.029833333333333337,0.1535,1.0003555555555554,-1.2335811384723961e-17,-1.68,-0.6144444444444445,-0.9704900000000001,-0.24156,0.15275,-0.46900000000000003,-2.863,0.322,0.05,1.01250358780038,1.788838163532029,1.0116988861316396,2.9189748200352805,2.0242024739320197,4.70781298356731
2025-03-11 23:43:52.300,60.935483870967744,0.02571,0.1547,0.99825,0.588,-2.0300000000000002,-0.637,-0.9698499999999999,-0.2434,0.1526,-0.5599999999999999,-2.912,0.45499999999999996,0.05,1.0104930264974619,2.207354298702408,1.0115035059257085,3.0000614993696377,2.02199653242317,5.207415798072046
2025-03-11 23:43:52.400,60.516129032258064,0.0308,0.1542777777777778,0.9989777777777777,0.7855555555555556,-2.457777777777778,-0.8088888888888889,-0.9718777777777778,-0.24063333333333337,0.15254444444444445,-0.44333333333333336,-3.1966666666666668,0.4666666666666667,0.05,1.0112897078532326,2.7040840168845293,1.0127786646549417,3.2608281156785925,2.0240683725081743,5.964912132563121
2025-03-11 23:43:52.500,60.241379310344826,0.03381,0.15739,1.0042,1.2879999999999998,-3.143,-1.085,-0.9702299999999999,-0.24262999999999998,0.15343,-0.42699999999999994,-3.136,0.462,0.07,1.01702132140875,3.5657563012634497,1.011808447632258,3.198479169855574,2.0288297690410078,6.764235471119024
2025-03-11 23:43:52.600,59.0,0.035050000000000005,0.15464,0.99264,-0.231,-4.942,0.511,-0.9723111111111111,-0.23983333333333334,0.1511888888888889,-0.6611111111111111,-3.173333333333334,0.35000000000000003,0.07,1.0052244533933703,4.973715512572065,1.0128015623464244,3.260308627366283,2.0180260157397947,8.234024139938349
2025-03-11 23:43:52.700,57.44827586206897,0.01598888888888889,0.1522,1.0105777777777778,0.6533333333333333,0.7466666666666667,1.905555555555556,-0.9707800000000001,-0.24093,0.15381,-0.5740000000000001,-3.185,0.21000000000000002,0.07,1.0220997649477144,2.14837090160526,1.0119874452778552,3.2431159399565104,2.03408721022557,5.39148684156177
2025-03-11 23:43:52.800,60.38709677419355,0.049530000000000005,0.15874000000000002,0.98941,4.76,-5.957,-2.513,-0.9696555555555556,-0.24557777777777778,0.15312222222222222,-0.9877777777777779,-2.893333333333333,0.25666666666666665,0.07,1.0032864778317307,8.028612457953118,1.0119223074407917,3.0680548387907214,2.0152087852725225,11.096667296743838
2025-03-11 23:43:52.900,61.06896551724138,0.037233333333333334,0.1613,1.0053444444444444,-1.5322222222222222,-2.0144444444444445,-0.031111111111111138,-0.9699,-0.24723,0.15376,-0.301,-3.0170000000000003,0.721,0.07,1.0188824579343878,2.5311379376200063,1.0126553315417839,3.1165254691723603,2.0315377894761717,5.647663406792367
2025-03-11 23:43:53.000,60.03125,0.03846,0.16621999999999998,0.9924899999999999,0.9730000000000001,-1.449,-0.77,-0.97101,-0.2363,0.15406999999999998,-0.39899999999999997,-2.835,0.44800000000000006,0.07,1.0070474964469152,1.9076765973298515,1.0111556136421338,2.8977801849001588,2.0182031100890487,4.80545678223001
2025-03-11 23:43:53.100,59.44444444444444,0.04357,0.15625,0.99938,0.665,-0.9800000000000001,-0.7070000000000001,-0.9707888888888889,-0.24556666666666668,0.15414444444444445,-0.29555555555555557,-3.1344444444444446,0.3655555555555556,0.05,1.0124587852352314,1.3793019973885343,1.013160680406118,3.169499317861723,2.0256194656413493,4.548801315250257
2025-03-11 23:43:53.200,60.1875,0.04278888888888889,0.16115555555555555,0.9969888888888888,-0.7466666666666667,-0.08555555555555551,-0.6455555555555557,-0.9705333333333334,-0.24258888888888888,0.1515111111111111,-0.33444444444444443,-2.9244444444444446,0.5288888888888889,0.05,1.010835716952397,0.9907435790890461,1.0118003443928947,2.990644053017987,2.022636061345292,3.981387632107033
2025-03-11 23:43:53.300,60.48275862068966,0.031030000000000002,0.1543,1.00278,0.308,-0.6579999999999999,-1.141,-0.97059,-0.24342000000000003,0.15465,-0.7,-3.017,0.39899999999999997,0.05,1.0150561951438946,1.352667364875785,1.0125289462528961,3.1227375810336673,2.0275851413967905,4.475404945909452
2025-03-11 23:43:53.400,60.96774193548387,0.03275555555555556,0.15778888888888887,0.9981222222222222,-0.28777777777777774,-0.8166666666666667,-0.6766666666666666,-0.97005,-0.24183,0.15241,-0.5389999999999999,-2.891,0.483,0.05,1.0110480850930732,1.0989259627495105,1.011290047167478,2.9802166028663084,2.0223381322605514,4.079142565615819
2025-03-11 23:43:53.500,60.44827586206897,0.030830000000000003,0.15488,1.00104,0.063,-2.065,-1.036,-0.97097,-0.23995000000000002,0.15234999999999999,-0.532,-3.0309999999999997,0.441,0.05,1.0134196489608833,2.3111663722025724,1.011716000614797,3.1087724265375227,2.02513564957568,5.419938798740095
2025-03-11 23:43:53.600,60.483870967741936,0.030611111111111113,0.1582222222222222,0.9984444444444445,0.2022222222222222,-1.1822222222222223,-0.8244444444444444,-0.9711111111111111,-0.2419222222222222,0.1517222222222222,-0.5366666666666666,-3.118888888888889,0.3888888888888889,0.07,1.0113667091467715,1.4554215375113326,1.0122266467765233,3.1885284349127123,2.023593355923295,4.6439499724240445
2025-03-11 23:43:53.700,59.58620689655172,0.03188,0.15221,1.0018,0.9800000000000001,-2.492,-0.8539999999999999,-0.9705299999999999,-0.24234,0.15299000000000001,-0.266,-3.122,0.518,0.07,1.0137985295412497,2.810654727994885,1.0119600271749867,3.1758406761045177,2.0257585567162364,5.9864954040994025
2025-03-11 23:43:53.800,60.354838709677416,0.03241,0.15649,0.99785,-0.05600000000000001,-2.8419999999999996,-0.29400000000000004,-0.9705666666666666,-0.2419111111111111,0.15165555555555554,-0.4666666666666667,-2.8777777777777778,0.4588888888888889,0.07,1.0105662525040109,2.8577151712513267,1.0116916761811974,2.9512644287483054,2.0222579286852085,5.808979599999632
2025-03-11 23:43:53.900,60.55172413793103,0.0379,0.15334444444444442,0.9990444444444445,0.25666666666666665,-2.0533333333333332,-1.011111111111111,-0.97082,-0.24195000000000003,0.15376,-0.469,-2.968,0.441,0.07,1.0114547595504626,2.3031285753443944,1.01226153364632,3.03701596966496,2.0237162931967827,5.3401445450093545
2025-03-11 23:43:54.000,60.9375,0.030699999999999998,0.15259,1.00264,-0.27299999999999996,-2.31,-0.22400000000000003,-0.9707699999999999,-0.24253999999999998,0.1532,-0.497,-3.073,0.504,0.07,1.0146492831022944,2.336836536859179,1.012269867426666,3.153466980959211,2.0269191505289603,5.49030351781839
2025-03-11 23:43:54.100,59.892857142857146,0.04125555555555556,0.15286666666666665,0.9969444444444444,0.3188888888888889,-2.1155555555555554,-0.77,-0.969811111111111,-0.24215555555555557,0.15275555555555556,-0.5133333333333333,-3.0255555555555556,0.4666666666666667,0.07,1.0094396782129267,2.2737997783663286,1.0111909632082725,3.1040739856907367,2.0206306414211994,5.377873764057066
2025-03-11 23:43:54.200,59.65625,0.03671,0.15084,1.00103,1.155,-2.38,-0.7,-0.97096,-0.24112,0.15196,-0.46900000000000003,-3.136,0.525,0.05,1.0129962441193947,2.736498675314863,1.0119258953105212,3.2140444925358453,2.0249221394299157,5.950543167850708
2025-03-11 23:43:54.300,60.75,0.034050000000000004,0.15562,0.99849,0.581,-2.107,-1.092,-0.9713888888888889,-0.2386888888888889,0.1544777777777778,-0.4666666666666667,-3.2433333333333336,0.38111111111111107,0.05,1.0111178304233388,2.4432507034686393,1.012142353111934,3.2988232095553767,2.023260183535273,5.742073913024016
2025-03-11 23:43:54.400,60.61290322580645,0.04126666666666667,0.15056666666666665,1.0028444444444444,-0.1322222222222222,-1.5244444444444445,-0.19444444444444445,-0.9701000000000001,-0.24488,0.15245,-0.378,-2.653,0.357,0.05,1.0149237600145025,1.5424727622302516,1.0120776782935192,2.7034685128552916,2.0270014383080217,4.245941275085543
2025-03-11 23:43:54.500,60.642857142857146,0.03451,0.15323,0.9993000000000001,1.7289999999999999,-2.1350000000000002,-1.267,-0.9709199999999999,-0.24276999999999999,0.15358,-0.532,-2.982,0.504,0.05,1.011568516216277,3.0253850994542826,1.012526412346858,3.0707269497628737,2.024094928563135,6.096112049217156
2025-03-11 23:43:54.600,60.28125,0.039540000000000006,0.15187,0.99953,0.24500000000000002,-2.4219999999999997,-0.826,-0.9706777777777779,-0.2418888888888889,0.15302222222222223,-0.35777777777777775,-2.862222222222222,0.4744444444444445,0.05,1.0117747424204657,2.5706779261509984,1.011998707179675,2.9232547816635,2.0237734496001405,5.493932707814499
2025-03-11 23:43:54.700,59.8,0.04046666666666667,0.15556666666666666,0.9983444444444444,1.1355555555555557,-3.5155555555555558,-0.28,-0.9712799999999999,-0.24072,0.15253,-0.581,-3.024,0.371,0.07,1.011202338131185,3.704998958697643,1.0122234722135226,3.1015766958113415,2.0234258103447074,6.806575654508984
2025-03-11 23:43:54.800,59.58064516129032,0.037630000000000004,0.15636,0.9976,0.7,-1.043,-0.756,-0.970311111111111,-0.24366666666666667,0.15398888888888887,-0.5133333333333333,-3.01,0.4277777777777778,0.07,1.0104801959959433,1.4660781016030489,1.0122201710553678,3.083278277786746,2.022700367051311,4.549356379389795
2025-03-11 23:43:54.900,60.29032258064516,0.03855555555555556,0.14965555555555554,1.0023,0.4511111111111112,-1.3766666666666667,-0.6611111111111111,-0.9718500000000001,-0.24033000000000002,0.15337,-0.44800000000000006,-3.101,0.469,0.07,1.014144272859064,1.5924133404721212,1.0128046644343618,3.168101324137219,2.026948937293426,4.760514664609341
2025-03-11 23:43:55.000,60.86206896551724,0.03845,0.1568,0.9984,0.371,-1.9460000000000002,-0.609,-0.97151,-0.24146,0.15353,-0.525,-2.9539999999999997,0.385,0.07,1.0113689744598653,2.0725438475458127,1.0127714809373336,3.024891072418972,2.024140455397199,5.097434919964785
2025-03-11 23:43:55.100,60.38709677419355,0.04037,0.15401,0.99879,0.8540000000000001,-1.8829999999999998,-0.749,-0.9700333333333333,-0.2444888888888889,0.15267777777777777,-0.4277777777777778,-2.9322222222222223,0.43555555555555553,0.07,1.0114001587403474,2.1990920853843297,1.0119535505126023,2.9951009381370826,2.02335370925295,5.194193023521413
2025-03-11 23:43:55.200,60.724137931034484,0.040122222222222226,0.1544777777777778,0.997411111111111,0.63,-2.1622222222222223,-1.0266666666666666,-0.9709300000000001,-0.24165,0.15348,-0.546,-2.912,0.42000000000000004,0.05,1.010100045100044,2.4751059336351746,1.0122528823372152,2.992366956106821,2.022352927437259,5.4674728897419955
2025-03-11 23:43:55.300,60.16129032258065,0.0403,0.15552,1.00221,0.826,-1.932,-0.9309999999999998,-0.9720444444444445,-0.2409,0.15275555555555556,1.571111111111111,-3.01,0.4588888888888889,0.05,1.0150051450608515,2.2981864589279954,1.0130337959458189,3.4262324987955015,2.0280389410066704,5.724418957723497
2025-03-11 23:43:55.400,59.37931034482759,0.04083333333333333,0.15632222222222222,0.997311111111111,0.56,-1.5477777777777777,-0.16333333333333333,-0.97019,-0.24289,0.15336,-0.441,-3.283,0.413,0.05,1.0103135407472692,1.6540537558255153,1.011821860704739,3.338134059620734,2.022135401452008,4.992187815446249
2025-03-11 23:43:55.500,60.53125,0.041190000000000004,0.15235,0.99719,0.819,-1.953,-0.9099999999999999,-0.97112,-0.24201,0.15198,-0.42000000000000004,-2.646,0.441,0.05,1.0096014236816429,2.3050097613676175,1.012294826075882,2.71517899962415,2.021896249757525,5.0201887609917675
2025-03-11 23:43:55.600,60.48148148148148,0.03876,0.15565,0.9998699999999999,0.693,-2.016,-0.924,-0.9709555555555556,-0.2403,0.1537888888888889,-0.5133333333333333,-2.9788888888888887,0.40444444444444444,0.05,1.0126545694361921,2.323420108374721,1.012002867194494,3.0497320262768604,2.024657436630686,5.373152134651582
2025-03-11 23:43:55.700,60.03125,0.03991111111111111,0.15506666666666666,1.0023111111111112,0.63,-1.718888888888889,-0.5833333333333334,-0.9702,-0.24339999999999998,0.15375555555555553,-0.5055555555555555,-2.807777777777778,0.4277777777777778,0.05,1.0150202615504897,1.9213944910203777,1.012014017128319,2.8848217096202493,2.0270342786788085,4.806216200640627
2025-03-11 23:43:55.800,59.714285714285715,0.042980000000000004,0.15375999999999998,0.9981500000000001,0.693,-1.6030000000000002,-0.77,-0.9718,-0.24150999999999997,0.15152,-0.483,-3.045,0.42000000000000004,0.07,1.0108376924610598,1.9086010583670965,1.0127589202273164,3.111545275261152,2.023596612688376,5.020146333628249
2025-03-11 23:43:55.900,60.5625,0.03921111111111111,0.15527777777777776,0.9980666666666667,0.63,-1.586666666666667,-1.1044444444444443,-0.97043,-0.24180000000000001,0.1543,-0.511,-2.9050000000000002,0.378,0.07,1.010834195413513,2.033275348292825,1.0119338490731498,2.973723255449303,2.0227680444866625,5.006998603742128
2025-03-11 23:43:56.000,60.41379310344828,0.04099,0.15563,1.00073,0.567,-2.065,-0.756,-0.97112,-0.24176000000000003,0.15327,-0.42000000000000004,-3.185,0.532,0.07,1.0135883828754153,2.2709579476511665,1.0124295752791894,3.256324461720607,2.026017958154605,5.527282409371773
2025-03-11 23:43:56.100,60.903225806451616,0.03996666666666667,0.156,0.9977333333333332,0.8711111111111111,-2.395555555555555,-1.1122222222222222,-0.9719777777777777,-0.2421,0.14997777777777777,-0.6922222222222223,-2.9555555555555557,0.35,0.07,1.010645901831541,2.7811075598148407,1.0128408287193933,3.0556472713507987,2.0234867305509345,5.836754831165639
2025-03-11 23:43:56.200,60.37931034482759,0.036460000000000006,0.15807,1.0003,1.169,-2.0300000000000002,-1.064,-0.9702999999999999,-0.24244,0.15611,-0.42000000000000004,-2.814,0.42699999999999994,0.07,1.013368415977131,2.572849976193715,1.0122398805125197,2.877034063058691,2.0256082964896507,5.449884039252406
2025-03-11 23:43:56.300,59.28125,0.0487,0.15694,0.99684,1.0710000000000002,-1.036,-0.931,-0.9706222222222222,-0.24232222222222222,0.15187777777777778,-0.3655555555555556,-2.8699999999999997,0.49,0.07,1.0102929472187758,1.757013944167775,1.0118766807457502,2.9343876472268504,2.022169627964526,4.691401591394626
2025-03-11 23:43:56.400,59.607142857142854,0.03593333333333334,0.15713333333333332,0.9983888888888889,0.32666666666666666,-1.5322222222222222,-0.7466666666666667,-0.9712,-0.24125999999999997,0.1523,-0.504,-2.898,0.40599999999999997,0.07,1.0113171917581936,1.7354904668403763,1.0122406421400003,2.969386468616034,2.023557833898194,4.704876935456411
2025-03-11 23:43:56.500,60.46875,0.04092,0.16036999999999998,0.99932,1.323,-1.8969999999999998,-0.798,-0.9717100000000001,-0.24131,0.15284999999999999,-0.581,-2.94,0.40599999999999997,0.07,1.0129330904358886,2.4465776096416803,1.0128247443166067,3.024234944576892,2.025757834752495,5.470812554218572
2025-03-11 23:43:56.600,60.07142857142857,0.03968888888888889,0.1545777777777778,1.001211111111111,0.7155555555555556,-1.3455555555555554,-1.0344444444444445,-0.9706333333333332,-0.2443111111111111,0.15254444444444445,-0.4355555555555556,-3.1033333333333335,0.39666666666666667,0.07,1.0138506725826522,1.8419052133089842,1.012465700318281,3.1587546381758633,2.0263163729009332,5.000659851484848
2025-03-11 23:43:56.700,60.1875,0.03758,0.16044,0.9963000000000001,0.10500000000000002,-2.093,-0.546,-0.9709199999999999,-0.24179,0.15253999999999998,-0.5810000000000001,-2.786,0.46900000000000003,0.07,1.009835105351364,2.165592297732886,1.012134626470214,2.8843227974691046,2.021969731821578,5.049915095201991
2025-03-11 23:43:56.800,59.51851851851852,0.04022,0.15914,0.9967900000000001,0.994,-1.512,-1.2109999999999999,-0.970411111111111,-0.24303333333333332,0.15225555555555553,-0.3888888888888889,-2.9866666666666664,0.4666666666666667,0.07,1.0102145772557434,2.1773150897378173,1.0119015168861754,3.047817271992661,2.0221160941419187,5.225132361730479
2025-03-11 23:43:56.900,59.6875,0.03726666666666667,0.158,1.0015222222222222,0.21777777777777776,-1.61,-0.4511111111111111,-0.9714499999999999,-0.24054000000000003,0.15186,-0.413,-3.038,0.46900000000000003,0.06,1.0145933008104198,1.6861282261624495,1.0122430803418712,3.1016082924831108,2.026836381152291,4.78773651864556
2025-03-11 23:43:57.000,59.96551724137931,0.039040000000000005,0.16032,0.99746,0.42000000000000004,-1.8829999999999998,-0.721,-0.97111,-0.24142000000000002,0.15352,-0.8539999999999999,-2.9050000000000002,0.45499999999999996,0.06,1.0110158631792086,2.059594620307598,1.0123767277550388,3.0619219454453765,2.0233925909342476,5.121516565752975
2025-03-11 23:43:57.100,60.935483870967744,0.03914,0.1591,0.99956,0.8470000000000001,-1.5959999999999999,-0.728,-0.9706222222222222,-0.2424,0.15325555555555556,-0.42000000000000004,-3.1422222222222222,0.49,0.06,1.0128992759401105,1.9479756158638124,1.0121030202406507,3.207812415623326,2.0250022961807614,5.1557880314871385
2025-03-11 23:43:57.200,59.89655172413793,0.03612222222222222,0.15887777777777778,0.9974777777777777,0.7622222222222221,-1.8744444444444446,-0.30333333333333334,-0.97081,-0.24083000000000002,0.15211,-0.45499999999999996,-3.003,0.329,0.06,1.0106972248751702,2.046102588451795,1.0117354382940236,3.0550409162562784,2.0224326631691936,5.101143504708073
2025-03-11 23:43:57.300,59.40625,0.04021,0.15846,1.00103,0.413,-2.478,-0.63,-0.9705299999999999,-0.24339,0.15279,-0.602,-2.933,0.378,0.06,1.0142916131961264,2.589971621466151,1.012181780659976,3.017909375710278,2.0264733938561026,5.607880997176428
2025-03-11 23:43:57.400,59.774193548387096,0.04181111111111111,0.1582222222222222,0.9975111111111112,0.4122222222222222,-1.228888888888889,-0.6766666666666666,-0.9712222222222222,-0.24252222222222222,0.15226666666666666,-0.49,-2.963333333333333,0.5055555555555555,0.07,1.0108466042913768,1.462180850478549,1.012558527191221,3.0458218700701343,2.0234051314825976,4.508002720548683
2025-03-11 23:43:57.500,60.172413793103445,0.037720000000000004,0.15841,0.99702,0.5810000000000001,-1.673,-0.791,-0.9710699999999999,-0.24102,0.15133,-0.511,-2.961,0.462,0.07,1.0102303731822757,1.939631666064462,1.0119132147570757,3.0400799331596526,2.0221435879393512,4.979711599224115
2025-03-11 23:43:57.600,60.58064516129032,0.03967,0.15811,0.9991299999999999,0.616,-2.275,-0.791,-0.9707444444444443,-0.24177777777777779,0.15203333333333335,-0.4666666666666667,-2.901111111111111,0.32666666666666666,0.07,1.0123404752848717,2.4861138348836724,1.011887051350771,2.9565071567478465,2.0242275266356424,5.442620991631519
2025-03-11 23:43:57.700,60.41379310344828,0.036477777777777776,0.15796666666666667,0.9988888888888889,0.6844444444444444,-2.0844444444444443,-0.6455555555555555,-0.9704699999999999,-0.24428999999999998,0.15331999999999998,-0.42000000000000004,-3.073,0.462,0.07,1.0119600330028167,2.2869444275746655,1.0124211808333525,3.1357890554053536,2.024381213836169,5.42273348298002
2025-03-11 23:43:57.800,60.354838709677416,0.0408,0.15938999999999998,0.9986,0.567,-2.128,-0.868,-0.9716,-0.23987777777777777,0.15133333333333332,-0.4122222222222222,-2.8311111111111114,0.4744444444444444,0.07,1.0120631265390514,2.367128429130959,1.0121510193886003,2.900037036800533,2.024214145927652,5.267165465931492
2025-03-11 23:43:57.900,59.6551724137931,0.04153333333333334,0.15913333333333332,0.9981777777777777,0.35777777777777775,-1.921111111111111,-0.6844444444444444,-0.97083,-0.24219,0.1526,-0.623,-3.136,0.413,0.07,1.0116359580426835,2.070540276603437,1.012152975098132,3.2238477011174087,2.0237889331408154,5.294387977720845
2025-03-11 23:43:58.000,59.90625,0.03948,0.15777,0.99795,0.45499999999999996,-1.491,-0.5740000000000001,-0.97028,-0.24321,0.15143,-0.525,-2.933,0.44799999999999995,0.08,1.011115347425802,1.6611989646035783,1.0116943349648648,3.013107698042006,2.0228096823906667,4.674306662645584
2025-03-11 23:43:58.100,60.142857142857146,0.04056,0.15699000000000002,0.9980100000000001,0.231,-2.247,-0.623,-0.9710555555555556,-0.24154444444444445,0.15235555555555555,-0.3888888888888889,-2.8855555555555554,0.5055555555555555,0.08,1.011095907320369,2.3431813843576004,1.0121782579792582,2.9552075818547587,2.023274165299627,5.298388966212359
2025-03-11 23:43:58.200,60.61290322580645,0.03728888888888889,0.15844444444444444,1.0000666666666667,0.5366666666666666,-1.6177777777777778,-1.0033333333333332,-0.9706777777777779,-0.2431222222222222,0.15225555555555553,-0.4744444444444444,-3.002222222222222,0.4666666666666667,0.08,1.0132267470747376,1.9778508101372292,1.0121785995600814,3.075095702615922,2.0254053466348187,5.052946512753151
2025-03-11 23:43:58.300,59.758620689655174,0.04392,0.15678999999999998,0.99879,0.532,-2.149,-0.749,-0.9705199999999999,-0.24122,0.15333,-0.39899999999999997,-3.2340000000000004,0.476,0.08,1.0119750661948148,2.3371405605996403,1.011734277219073,3.2931038550279585,2.0237093434138878,5.630244415627599
2025-03-11 23:43:58.400,59.903225806451616,0.03777777777777778,0.1587222222222222,0.9970888888888889,0.1011111111111111,-2.4344444444444444,-0.6066666666666667,-0.9706199999999999,-0.24281000000000003,0.15299000000000001,-0.483,-2.9539999999999997,0.42000000000000004,0.08,1.0103495220302066,2.5109336220459886,1.0121589897837198,3.0225494206050625,2.0225085118139265,5.533483042651051
2025-03-11 23:43:58.500,60.37931034482759,0.04454,0.15763,0.99875,0.49000000000000005,-2.107,-0.6439999999999999,-0.97116,-0.24180000000000001,0.15167999999999998,-0.44800000000000006,-2.926,0.45499999999999996,0.06,1.0120931730823997,2.2570522811844658,1.012238019440092,2.9948631020465695,2.0243311925224914,5.251915383231035
2025-03-11 23:43:58.600,60.59375,0.04039,0.15528,1.00068,0.518,-1.4769999999999999,-0.889,-0.9708888888888888,-0.24226666666666669,0.1535,-0.5522222222222222,-3.0566666666666666,0.4044444444444444,0.06,1.0134612439062483,1.800048332684431,1.012363878427949,3.1323690399550843,2.025825122334197,4.932417372639515
2025-03-11 23:43:58.700,60.285714285714285,0.04187777777777778,0.1582777777777778,0.9972555555555557,0.2488888888888889,-2.5277777777777777,-0.2411111111111111,-0.9710599999999999,-0.24173999999999998,0.1526,-0.45499999999999996,-2.947,0.441,0.06,1.0106058807944354,2.551419358071256,1.012266027880023,3.014351505713957,2.0228719086744587,5.565770863785213
2025-03-11 23:43:58.800,60.16129032258065,0.04259,0.15621,0.9995200000000001,0.714,-1.799,-0.868,-0.97073,-0.24098000000000003,0.15211,-0.518,-3.0309999999999997,0.371,0.06,1.012549111203995,2.121231010521956,1.0116943932828728,3.0972449047500263,2.0242435044868676,5.218475915271982
2025-03-11 23:43:58.900,59.89655172413793,0.04288888888888889,0.15275555555555556,0.9993666666666667,0.6922222222222223,-2.061111111111111,-0.8400000000000001,-0.9710555555555556,-0.24138888888888888,0.15405555555555556,-0.39666666666666667,-3.22,0.43555555555555553,0.06,1.0118831212089934,2.3308690690993243,1.0123984402654183,3.2734466677219216,2.0242815614744116,5.6043157368212455
2025-03-11 23:43:59.000,60.1875,0.043870000000000006,0.157,0.9984999999999999,0.399,-2.338,-0.952,-0.9702299999999999,-0.24289,0.15221,-0.567,-2.933,0.385,0.05,1.011719243120343,2.555728663219161,1.0116865567457145,3.0120097941407824,2.0234057998660573,5.567738457359944
2025-03-11 23:43:59.100,60.214285714285715,0.04533333333333334,0.1570111111111111,0.9984333333333333,0.39666666666666667,-1.7577777777777779,-0.43555555555555553,-0.9717777777777779,-0.2410777777777778,0.15361111111111111,-0.5366666666666666,-2.9633333333333334,0.4666666666666667,0.05,1.0117196851077712,1.8538704923670197,1.0129496126549327,3.047479833129882,2.0246692977627037,4.901350325496901
2025-03-11 23:43:59.200,60.53125,0.04396,0.15455000000000002,0.9989399999999999,0.616,-1.666,-0.9099999999999999,-0.97079,-0.24144000000000002,0.15264,-0.511,-2.989,0.42699999999999994,0.05,1.0117802665104711,1.9957735342468093,1.0119414347184328,3.0622819922404267,2.023721701228904,5.0580555264872356
2025-03-11 23:43:59.300,60.642857142857146,0.04339,0.15806,0.98565,0.273,-1.7149999999999999,-0.749,-0.9722000000000001,-0.24036666666666667,0.15306666666666666,-0.5366666666666666,-2.94,0.4277777777777778,0.05,0.999185457360144,1.8912310805398687,1.0131033406760088,3.0190404002383944,2.0122887980361526,4.910271480778263
2025-03-11 23:43:59.400,59.903225806451616,0.043111111111111114,0.15344444444444444,0.9986666666666666,0.7466666666666666,-1.6488888888888888,-0.77,-0.97102,-0.24262999999999998,0.15328,-0.42000000000000004,-2.933,0.392,0.05,1.0113055307587364,1.9670398264936948,1.0125432907782264,2.9887376934083725,2.023848821536963,4.9557775199020675
2025-03-11 23:43:59.500,59.827586206896555,0.04168,0.15505,0.9990399999999999,0.8119999999999999,-1.2879999999999998,-0.9730000000000001,-0.97122,-0.24208,0.15284,-0.40599999999999997,-3.15,0.511,0.05,1.0118590052472725,1.8069358040616714,1.012536952609632,3.2169017703374156,2.024395957856904,5.023837574399087
2025-03-11 23:43:59.600,60.29032258064516,0.04446,0.15572,1.01226,0.742,-2.226,-0.826,-0.9711555555555554,-0.24265555555555554,0.15263333333333332,-0.44333333333333336,-2.947777777777778,0.43555555555555553,0.06,1.025132048860048,2.4875522105073493,1.0125817330827371,3.0125814368378903,2.0377137819427853,5.50013364734524
2025-03-11 23:43:59.700,60.724137931034484,0.042275,0.156275,0.9974625,-0.06999999999999999,-1.9425,-0.49875,-0.9718899999999999,-0.24062999999999998,0.15308,-0.532,-3.038,0.441,0.06,1.0105149628561914,2.0067281361709166,1.0128704040497973,3.115597695467115,2.0233853669059885,5.122325831638031
2025-03-11 23:43:59.800,59.71875,0.04292727272727273,0.15616363636363637,0.9983636363636363,0.5854545454545454,-1.4572727272727273,-0.6172727272727273,-0.9710555555555556,-0.24336666666666668,0.15285555555555555,-0.5677777777777778,-3.017777777777778,0.38111111111111107,0.06,1.0114147430601053,1.6874319086354246,1.0126900055219024,3.0942850547420484,2.0241047485820074,4.781716963377473
2025-03-11 23:43:59.900,59.516129032258064,0.043388888888888894,0.1545888888888889,0.9991444444444445,0.8788888888888889,-1.8744444444444446,-1.0033333333333332,-0.97096,-0.24147,0.15270999999999998,-0.497,-3.143,0.49000000000000005,0.06,1.0119634089783638,2.3005793687892546,1.0121222389612827,3.2195586654074186,2.0240856479396463,5.520138034196673
2025-03-11 23:44:00.000,59.689655172413794,0.044120000000000006,0.15355999999999997,0.99975,0.35,-1.7570000000000001,-0.9029999999999999,-0.9710699999999999,-0.24078,0.15241,-0.6719999999999999,-2.9050000000000002,0.273,0.06,1.0124363241705623,2.00622979740607,1.0120181625840516,2.9941840290803774,2.024454486754614,5.000413826486447
2025-03-11 23:44:00.100,59.483870967741936,0.039169999999999996,0.15923,0.99767,0.924,-1.512,-0.8119999999999999,-0.9708333333333334,-0.24211111111111114,0.1535111111111111,-0.5211111111111111,-3.017777777777778,0.49,0.05,1.0110558395558575,1.9491700798031966,1.0122750675923693,3.101393155691945,2.023330907148227,5.050563235495142
2025-03-11 23:44:00.200,60.10344827586207,0.0456,0.15186666666666668,0.9879888888888888,0.33444444444444443,-1.26,-0.63,-0.97166,-0.24257,0.15234999999999999,-0.329,-3.1079999999999997,0.497,0.05,1.0006322446395306,1.4478788231132305,1.013002410164951,3.1646348920531095,2.0136346548044814,4.61251371516634
2025-03-11 23:44:00.300,60.87096774193548,0.03762,0.15903,0.9976100000000001,1.127,-2.6390000000000002,-1.484,-0.9715555555555555,-0.23932222222222224,0.15257777777777778,-0.5522222222222222,-2.9944444444444445,0.40444444444444444,0.05,1.010906285171875,3.2305891103636193,1.0121636734500263,3.0716806836359507,2.0230699586219014,6.30226979399957
2025-03-11 23:44:00.400,60.13793103448276,0.04684444444444444,0.1554888888888889,1.000888888888889,0.35,-1.6722222222222223,-0.20222222222222222,-0.9703799999999999,-0.24413999999999997,0.15284,-0.595,-2.835,0.392,0.05,1.0139772011462804,1.7203839651817037,1.012226135604095,2.9231684864201717,2.0262033367503753,4.643552451601876
2025-03-11 23:44:00.500,59.6875,0.04157,0.15694999999999998,0.99616,0.5319999999999999,-2.0300000000000002,-1.3370000000000002,-0.9712999999999999,-0.24122,0.15249,-0.35,-2.877,0.497,0.05,1.009304767154104,2.488271086517705,1.012355658106379,2.940516621275928,2.021660425260483,5.428787707793633
2025-03-11 23:44:00.600,59.607142857142854,0.0427,0.16013,0.9996700000000001,0.476,-1.9669999999999999,-0.588,-0.9702555555555556,-0.2424222222222222,0.15327777777777776,-0.5211111111111111,-2.9244444444444446,0.39666666666666667,0.05,1.0133138782233273,2.1074650649536277,1.011760077327661,2.9968777991786513,2.0250739555509885,5.1043428641322794
2025-03-11 23:44:00.700,59.903225806451616,0.04387777777777777,0.15524444444444443,0.9986666666666666,1.0811111111111111,-0.9644444444444444,-0.6922222222222223,-0.9706111111111111,-0.24248888888888886,0.15237777777777778,-0.42777777777777776,-2.9322222222222223,0.5366666666666666,0.02,1.0116131711403777,1.6056543606660576,1.0119811151436608,3.011466768663641,2.0235942862840384,4.617121129329699
2025-03-11 23:44:00.800,60.758620689655174,0.04016,0.15502,0.9983000000000001,0.8960000000000001,-1.911,-1.0710000000000002,-0.97156,-0.24173999999999998,0.15255000000000002,-0.42699999999999994,-3.157,0.42000000000000004,0.02,1.0110622710792843,2.3668075544919156,1.0127381515969467,3.2133126209567595,2.023800422676231,5.580120175448675
2025-03-11 23:44:00.900,60.25806451612903,0.0428,0.15881111111111113,0.9995777777777778,0.6222222222222222,-2.1933333333333334,-0.98,-0.97073,-0.2415,0.15231,-0.378,-2.947,0.483,0.02,1.0130195175017638,2.4815865096623715,1.0118484664217267,3.010146508062357,2.0248679839234907,5.491733017724728
2025-03-11 23:44:01.000,60.06896551724138,0.04356,0.15885,0.99773,0.29400000000000004,-1.568,-0.238,-0.9713499999999999,-0.24312,0.15231,-0.679,-2.919,0.378,0.02,1.0112348634219452,1.6129798510830817,1.0128309301161769,3.020676414315178,2.024065793538122,4.63365626539826
2025-03-11 23:44:01.100,59.41935483870968,0.04007777777777778,0.15703333333333333,0.9951333333333334,1.0499999999999998,-1.6722222222222223,-1.1977777777777776,-0.9706888888888889,-0.24253333333333332,0.15295555555555557,-0.20222222222222222,-2.8855555555555554,0.5366666666666666,0.02,1.0082440414703644,2.309436893580792,1.0121535154142538,2.9419952077576763,2.0203975568846184,5.251432101338468
2025-03-11 23:44:01.200,60.41379310344828,0.04272,0.15705,1.00234,0.5109999999999999,-1.498,-0.9100000000000001,-0.9720000000000001,-0.23906,0.15215,-0.616,-2.912,0.364,0.01,1.015467959366518,1.8257121898042965,1.0124639776801938,2.998615680609971,2.027931937046712,4.824327870414267
2025-03-11 23:44:01.300,61.29032258064516,0.039490000000000004,0.15669,0.99821,0.7,-2.016,-1.3370000000000002,-0.9707888888888889,-0.24367777777777777,0.15154444444444443,-0.3733333333333333,-2.7377777777777776,0.39666666666666667,0.01,1.0112044404075766,2.518298036372979,1.0123120293737573,2.791442168972169,2.0235164697813337,5.309740205345149
2025-03-11 23:44:01.400,60.03448275862069,0.042944444444444445,0.1602111111111111,0.9975222222222223,0.3888888888888889,-1.9522222222222223,1.3688888888888888,-0.9710599999999999,-0.24159999999999998,0.15367999999999998,-0.42000000000000004,-3.024,0.49000000000000005,0.01,1.0112182797295841,2.415835872521758,1.0123959828051472,3.0920989634874236,2.023614262534731,5.5079348360091815
2025-03-11 23:44:01.500,59.5625,0.03996,0.15884,0.9972100000000002,0.833,-1.498,-0.609,-0.97126,-0.24093,0.15172999999999998,-0.406,-2.835,0.462,0.07,1.0105714874762697,1.8190035733884635,1.0121340056534016,2.900948982660674,2.0227054931296715,4.7199525560491375
2025-03-11 23:44:01.600,59.892857142857146,0.04256666666666667,0.15697777777777777,0.9993555555555554,0.32666666666666666,-1.913333333333333,-0.5055555555555555,-0.9710555555555556,-0.2411888888888889,0.15235555555555555,-0.6533333333333333,-2.8233333333333333,0.2644444444444444,0.07,1.0125045531981145,2.00577714996174,1.0120934677229212,2.909980484428218,2.0245980209210357,4.9157576343899585
2025-03-11 23:44:01.700,60.59375,0.042460000000000005,0.15821000000000002,0.99786,0.679,-2.072,-1.274,-0.97048,-0.24430000000000002,0.15216,-0.434,-3.003,0.511,0.12,1.0112160181187797,2.5253318593800698,1.012258161735434,3.0769280134575787,2.0234741798542135,5.6022598728376485
2025-03-11 23:44:01.800,60.464285714285715,0.03945,0.15724,1.00002,0.567,-1.54,-0.9099999999999999,-0.9711111111111111,-0.24106666666666665,0.15175555555555553,-0.5288888888888889,-2.901111111111111,0.4666666666666667,0.18,1.0130748839547843,1.8764831467401992,1.0120275077996694,2.9856233710199027,2.0251023917544537,4.862106517760102
2025-03-11 23:44:01.900,60.45161290322581,0.040511111111111116,0.15891111111111111,0.997788888888889,0.11666666666666664,-1.9677777777777778,-0.40444444444444444,-0.9709,-0.24057,0.15294,-0.469,-3.0170000000000003,0.42000000000000004,0.18,1.0111758294916608,2.012296151780134,1.0118850619017952,3.0819879947851843,2.023060891393456,5.094284146565318
2025-03-11 23:44:02.000,59.55172413793103,0.04152,0.15797,0.9976100000000001,0.588,-1.61,-0.7140000000000001,-0.9705199999999999,-0.24312999999999999,0.15172,-0.399,-2.8,0.497,0.18,1.0108927457450667,1.85678216277516,1.011948726813765,2.871621493163749,2.0228414725588317,4.728403655938909
2025-03-11 23:44:02.100,59.806451612903224,0.04087777777777778,0.1565,0.9984555555555557,0.8244444444444444,-1.501111111111111,-1.018888888888889,-0.9706666666666668,-0.24025555555555556,0.15284444444444445,-0.5444444444444445,-3.118888888888889,0.43555555555555553,0.11,1.011472559754244,1.9927814174609761,1.011572011253088,3.195871758424655,2.0230445710073317,5.188653175885631
2025-03-11 23:44:02.200,59.46666666666667,0.04240000000000001,0.15577000000000002,1.00127,0.735,-2.107,-0.609,-0.9706699999999999,-0.24244,0.15304,-2.079,-3.157,0.504,0.06,1.0142009987177099,2.3131266718448433,1.012125804482822,3.8135162252178767,2.026326803200532,6.12664289706272
2025-03-11 23:44:02.300,60.16129032258065,0.04027,0.15988,0.99504,0.15399999999999997,-1.925,-0.749,-0.9715444444444444,-0.24080000000000001,0.15106666666666665,-0.5055555555555555,-2.7533333333333334,0.38111111111111107,0.11,1.0086069050427922,2.0713140756534245,1.0122768323480698,2.8251861077121765,2.0208837373908617,4.896500183365601
2025-03-11 23:44:02.400,60.03225806451613,0.04358888888888889,0.15767777777777778,1.000888888888889,0.9955555555555556,-2.0144444444444445,-1.221111111111111,-0.97073,-0.24239000000000002,0.15386,-0.462,-2.8489999999999998,0.315,0.17,1.0141700255582105,2.557387266260163,1.0122956804214864,2.9033549559087675,2.026465705979697,5.46074222216893
2025-03-11 23:44:02.500,60.206896551724135,0.037309999999999996,0.15849,0.9992699999999999,0.406,-1.4280000000000002,-0.679,-0.9709999999999999,-0.24219,0.15133,-0.40599999999999997,-2.94,0.532,0.17,1.0124483439168637,1.6325014548232417,1.0121253701987714,3.015204802331012,2.0245737141156352,4.647706257154254
2025-03-11 23:44:02.600,59.32258064516129,0.043480000000000005,0.15819999999999998,0.99938,0.469,-1.449,-0.749,-0.9708333333333334,-0.24102222222222222,0.15317777777777777,-0.5055555555555555,-2.8777777777777778,0.42,0.175,1.0127576880972073,1.6972221422076723,1.0119646754314044,2.9518792925905166,2.024722363528612,4.6491014347981885
2025-03-11 23:44:02.700,59.3448275862069,0.0374,0.15773333333333334,0.9952999999999999,0.6066666666666667,-1.9366666666666665,-0.9566666666666666,-0.97073,-0.24184999999999998,0.15156999999999998,-0.462,-3.045,0.42699999999999994,0.11,1.008414921768041,2.2436428711658487,1.0118209428055933,3.109308283203838,2.0202358645736345,5.352951154369687
2025-03-11 23:44:02.800,59.54838709677419,0.04232,0.15811999999999998,0.9994,0.966,-2.2190000000000003,-0.9029999999999999,-0.969988888888889,-0.24383333333333335,0.15285555555555555,-0.43555555555555553,-2.9555555555555553,0.3888888888888889,0.11,1.012715792707905,2.583123303290031,1.0117796004449504,3.0126818371430875,2.024495393152855,5.595805140433118
2025-03-11 23:44:02.900,60.793103448275865,0.03897777777777778,0.15777777777777777,1.0010000000000001,0.4977777777777778,-2.1466666666666665,-1.011111111111111,-0.97166,-0.24035,0.15128,-0.434,-2.968,0.42699999999999994,0.11,1.0141075358762441,2.4245218441662892,1.012312657482855,3.029803458972215,2.0264201933590993,5.454325303138504
2025-03-11 23:44:03.000,60.21875,0.04455,0.15821000000000002,0.99854,0.231,-1.61,-2.5690000000000004,-0.97072,-0.24245,0.15211999999999998,-0.399,-2.751,0.434,0.07,1.0119768960801427,3.040595665326122,1.012037457458962,2.813460147220856,2.024014353539105,5.854055812546978
2025-03-11 23:44:03.100,59.75,0.03787,0.16031,0.99605,0.33599999999999997,-1.855,-0.252,-0.9708999999999999,-0.24042222222222223,0.15262222222222221,-0.5288888888888889,-3.002222222222222,0.4122222222222222,0.07,1.0095786425534168,1.9019529436870934,1.0118019557474283,3.076197147272731,2.021380598300845,4.978150090959824
2025-03-11 23:44:03.200,59.58064516129032,0.04386666666666667,0.15745555555555557,1.000288888888889,0.9255555555555556,-2.037777777777778,-0.8555555555555556,-0.9704777777777777,-0.24316666666666664,0.1515,-0.40444444444444444,-2.8,0.4666666666666667,0.07,1.0135553254037597,2.396073176400643,1.011884081769385,2.867290199198496,2.0254394071731445,5.263363375599139
2025-03-11 23:44:03.300,59.758620689655174,0.04022,0.15822,0.9983000000000001,0.6859999999999999,-1.7149999999999999,-0.861,-0.9714499999999999,-0.24003999999999998,0.15231,-0.609,-2.9539999999999997,0.336,0.07,1.0115602338961334,2.0379259064058237,1.0121919976960891,3.034780552198132,2.0237522315922227,5.072706458603956
2025-03-11 23:44:03.400,61.096774193548384,0.0423,0.1575111111111111,1.0006111111111111,0.8011111111111111,-2.2711111111111113,-0.8244444444444444,-0.9704,-0.24434999999999998,0.15177999999999997,-0.5389999999999999,-3.087,0.483,0.07,1.0138153854634824,2.545473105992938,1.012136478396071,3.1707063881728312,2.0259518638595533,5.716179494165769
