timestamp,ecg_value,wrist_accel_x,wrist_accel_y,wrist_accel_z,wrist_gyro_x,wrist_gyro_y,wrist_gyro_z,ankle_accel_x,ankle_accel_y,ankle_accel_z,ankle_gyro_x,ankle_gyro_y,ankle_gyro_z,orientation,wrist_accel_magnitude,wrist_gyro_magnitude,ankle_accel_magnitude,ankle_gyro_magnitude,total_accel_magnitude,total_gyro_magnitude
2025-03-12 00:14:37.200,204.28125,0.70007,0.35061,0.61426,0.602,-3.71,-1.659,-0.9496499999999999,-0.3378611111111111,0.040572222222222225,-0.4705555555555556,-3.2783333333333333,0.4627777777777778,0.15,0.9951586429308645,4.108379850987491,1.008777159791638,3.344107541170526,2.0039358027225025,7.452487392158018
2025-03-12 00:14:37.300,203.89285714285714,0.6983333333333334,0.35157777777777777,0.6129777777777777,-0.14777777777777779,-1.0811111111111111,-0.7155555555555555,-0.949811111111111,-0.33785,0.040294444444444445,-0.4666666666666667,-3.1655555555555557,0.42388888888888887,0.15,0.9934878631976274,1.3048598619235934,1.0089139762850001,3.2277238951325864,2.0024018394826273,4.53258375705618
2025-03-12 00:14:37.400,203.84375,0.71742,0.35507,0.61767,0.266,0.4620000000000001,-0.13999999999999999,-0.9493684210526316,-0.3377157894736842,0.040536842105263156,-0.648421052631579,-3.2310526315789474,0.35368421052631577,0.15,1.0110798139612915,0.5511805511808269,1.0084619918071616,3.3143994162298407,2.019541805768453,3.8655799674106675
2025-03-12 00:14:37.500,203.96428571428572,0.7129555555555556,0.3390888888888889,0.6362,1.4933333333333334,-2.247777777777778,1.2366666666666668,-0.9493999999999999,-0.33767777777777774,0.04118333333333333,-0.5016666666666666,-3.2744444444444443,0.4433333333333333,0.15,1.0139217616588727,2.9684834220794456,1.0085051851871574,3.342184960268054,2.0224269468460303,6.310668382347499
2025-03-12 00:14:37.600,204.09375,0.6999500000000001,0.33731,0.6204500000000001,-0.665,-2.646,-1.512,-0.9497833333333333,-0.33800555555555556,0.0403,-0.5794444444444444,-3.3094444444444444,0.40055555555555555,0.15,0.9943169721472124,3.1192442995058913,1.0089401497929387,3.3835814085297473,2.003257121940151,6.502825708035639
2025-03-12 00:14:37.700,203.79310344827587,0.71068,0.34794,0.6214299999999999,-0.525,-0.9099999999999999,-0.952,-0.9497684210526316,-0.33697894736842104,0.04013157894736843,-0.5636842105263158,-3.1647368421052633,0.4568421052631579,0.15,1.0061329687968683,1.4177549153503224,1.0085759308188684,3.246845219303862,2.0147088996157367,4.664600134654185
2025-03-12 00:14:37.800,203.74193548387098,0.7143666666666666,0.3464777777777777,0.6241,0.3655555555555556,-1.0733333333333333,-1.3922222222222222,-0.9495666666666666,-0.33795,0.040372222222222226,-0.5288888888888889,-3.3405555555555555,0.42,0.15,1.0098848424143574,1.795538366254355,1.0087204633948916,3.408142437830791,2.018605305809249,5.203680804085145
2025-03-12 00:14:37.900,203.66666666666666,0.70561,0.3457,0.63255,0.483,-2.3449999999999998,-0.399,-0.9499842105263159,-0.3380263157894737,0.040510526315789476,-0.42368421052631583,-3.3084210526315787,0.42368421052631583,0.15,1.0087187242239533,2.4272443222716578,1.009144634409704,3.3622412884851762,2.017863358633657,5.789485610756834
2025-03-12 00:14:38.000,203.2258064516129,0.70404,0.3399,0.6180899999999999,-1.8199999999999998,-2.2190000000000003,-0.9030000000000001,-0.9495,-0.33755555555555555,0.04006666666666667,-0.4666666666666667,-3.212222222222222,0.4861111111111111,0.15,0.996614057546852,3.0086159608697156,1.0085134311768968,3.282141586687224,2.005127488723749,6.2907575475569395
2025-03-12 00:14:38.100,203.55172413793105,0.7116555555555555,0.3429,0.6254000000000001,0.19444444444444442,-0.5755555555555555,-1.1277777777777778,-0.9496105263157895,-0.33761052631578947,0.040768421052631586,-0.541578947368421,-3.271578947368421,0.4605263157894737,0.15,1.007551090393478,1.2809978749223416,1.008664009134905,3.3479278744667695,2.0162150995283827,4.628925749389111
2025-03-12 00:14:38.200,203.78125,0.70712,0.34356,0.6321100000000001,0.231,-2.548,-0.819,-0.9496388888888888,-0.33660555555555555,0.03905555555555556,-0.5911111111111111,-3.2394444444444446,0.44722222222222224,0.15,1.0087691609580458,2.6863406336501705,1.0082869907624221,3.323164210563536,2.017056151720468,6.009504844213707
2025-03-12 00:14:38.300,203.3,0.7008222222222222,0.3406222222222222,0.6170111111111111,0.3888888888888889,-2.092222222222222,-1.7577777777777779,-0.9503833333333334,-0.3359611111111111,0.03875,-0.5950000000000001,-3.426111111111111,0.3733333333333333,0.15,0.993920518284368,2.7601469365073865,1.0087615728985666,3.4973761770013803,2.0026820911829346,6.257523113508767
2025-03-12 00:14:38.400,203.43333333333334,0.71292,0.35202999999999995,0.62854,0.02799999999999999,-1.7079999999999997,-1.7570000000000001,-0.9499789473684209,-0.3371368421052631,0.03963684210526316,-0.5563157894736842,-3.275263157894737,0.4273684210526316,0.15,1.0135297622171733,2.450529942685867,1.0088073800285164,3.3495491903229833,2.0223371422456897,5.80007913300885
2025-03-12 00:14:38.500,203.0,0.71058,0.34804,0.62278,0.8960000000000001,-1.7149999999999999,-0.049,-0.9494777777777776,-0.3376388888888889,0.04061666666666667,-0.5444444444444444,-3.3677777777777775,0.3811111111111111,0.15,1.0069313315216684,1.9355727834416352,1.008542405352924,3.4327237862363167,2.0154737368745925,5.368296569677952
2025-03-12 00:14:38.600,203.1851851851852,0.7066777777777777,0.34023333333333333,0.6261222222222221,0.42,-1.9444444444444444,0.4122222222222222,-0.9497315789473684,-0.3368736842105263,0.03976315789473685,-0.5194736842105264,-3.256842105263158,0.3942105263157895,0.15,1.0035841967052606,2.0315490045836184,1.0084914773507987,3.3214869179721886,2.0120756740560592,5.353035922555807
2025-03-12 00:14:38.700,203.375,0.70658,0.34228000000000003,0.62489,0.07699999999999999,-1.4769999999999999,-0.343,-0.9491,-0.3378875,0.041075,-0.5425,-3.2375,0.3675,0.15,1.003443275377338,1.51825788323328,1.0082886135830604,3.303145281394689,2.0117318889603983,4.821403164627969
2025-03-12 00:14:38.800,202.6551724137931,0.71502,0.34185,0.62303,0.8470000000000001,-1.7289999999999999,0.364,-0.9505947368421053,-0.33620526315789473,0.03941578947368421,-0.508421052631579,-3.3378947368421055,0.4163157894736842,0.15,1.0081078334186278,1.959424915632135,1.0090678555710784,3.4019629741609956,2.017175688989706,5.36138788979313
2025-03-12 00:14:38.900,202.65625,0.7188333333333333,0.33763333333333334,0.6253333333333333,1.641111111111111,-1.7966666666666669,-0.15555555555555556,-0.9497,-0.3388055555555556,0.04006666666666667,-0.5833333333333334,-3.317222222222222,0.4277777777777778,0.15,1.0108211546394676,2.4383302321440494,1.0091207223385548,3.395178180382174,2.0199418769780224,5.833508412526223
2025-03-12 00:14:39.000,202.20689655172413,0.70739,0.34058,0.62361,4.179,-3.563,-1.421,-0.9497157894736842,-0.3378473684210526,0.03918947368421053,-0.5489473684210526,-3.3194736842105264,0.3942105263157895,0.15,1.0026389083812777,5.672587681120496,1.0087798273024193,3.387572979659741,2.011418735683697,9.060160660780237
2025-03-12 00:14:39.100,201.03225806451613,0.6974400000000001,0.33882,0.63098,4.676,-2.352,-0.32900000000000007,-0.9479833333333334,-0.34146666666666664,0.04399444444444445,-0.062222222222222213,-2.893333333333333,0.8127777777777778,0.15,0.9996786015515187,5.244532486313723,1.008567001177511,3.005970242494997,2.00824560272903,8.25050272880872
2025-03-12 00:14:39.200,200.79310344827587,0.6996444444444445,0.3532888888888889,0.6189666666666667,-1.19,-1.8822222222222225,-3.227777777777778,-0.9516526315789473,-0.3311684210526316,0.03341578947368421,0.02947368421052632,-2.2989473684210524,1.2157894736842105,0.15,0.9987167376682767,3.9214040695321377,1.0081824583277466,2.600802134948438,2.006899195996023,6.522206204480575
2025-03-12 00:14:39.300,200.75,0.72702,0.36902,0.60737,0.189,-2.023,-1.533,-0.9533999999999999,-0.329,0.036105882352941175,-1.173529411764706,-4.088823529411765,-0.5105882352941177,0.15,1.0166770173953967,2.545258140150032,1.0092156334205709,4.284431056857942,2.0258926508159676,6.8296891970079745
2025-03-12 00:14:39.400,200.35714285714286,0.6994111111111111,0.3431222222222222,0.6193666666666666,-1.0033333333333334,-2.068888888888889,-1.26,-0.94565,-0.34745,0.04352,-0.609,-3.4579999999999997,-0.21000000000000002,0.15,0.9952506365263841,2.62194184000059,1.0083994324671153,3.517491293521563,2.0036500689934993,6.139433133522154
2025-03-12 00:14:39.500,200.3939393939394,0.70643,0.33999999999999997,0.6218600000000001,-0.147,-2.674,-1.638,-0.9477555555555556,-0.34243333333333337,0.039844444444444446,-0.28,-2.8699999999999997,0.8244444444444444,0.15,1.000676373509438,3.1392561220773305,1.008508185696717,2.9991679916228944,2.009184559206155,6.138424113700225
2025-03-12 00:14:39.600,199.89285714285714,0.7128099999999999,0.35297,0.6160599999999999,0.266,-0.5740000000000001,-0.371,-0.95091,-0.33399999999999996,0.037570000000000006,-0.462,-3.003,1.0779999999999998,0.15,1.0060893800254527,0.7333982547020412,1.0085620124712213,3.223900897980582,2.014651392496674,3.957299152682623
2025-03-12 00:14:39.700,200.51612903225808,0.7130777777777778,0.3589111111111111,0.6347333333333334,1.913333333333333,-1.12,-0.7388888888888889,-0.9524111111111111,-0.33145555555555556,0.03816666666666667,-0.63,-3.1344444444444446,0.40444444444444444,0.15,1.0198938705982847,2.3369213154421566,1.0091612380194692,3.22261032145536,2.029055108617754,5.559531636897517
2025-03-12 00:14:39.800,201.10344827586206,0.7116399999999999,0.35052,0.61732,1.232,-4.529,-0.917,-0.95009,-0.33629,0.0391,-0.637,-3.5,0.077,0.15,1.0051764732622825,4.7823168025550125,1.0086083393468448,3.558327978138047,2.0137848126091273,8.34064478069306
2025-03-12 00:14:39.900,201.1875,0.70346,0.35062,0.61503,-0.203,-2.1630000000000003,-0.882,-0.9473100000000001,-0.34062000000000003,0.04086,-0.35,-3.073,0.637,0.15,0.9980241765107697,2.344717893478873,1.0075156376453915,3.1577837164695115,2.0055398141561613,5.502501609948384
2025-03-12 00:14:40.000,201.6,0.7164333333333333,0.3523777777777778,0.6107111111111112,0.9177777777777778,-0.46666666666666656,-0.29555555555555557,-0.9522666666666666,-0.33185555555555557,0.03431111111111111,-0.5833333333333334,-3.3677777777777775,0.40444444444444444,0.15,1.0051939517412964,1.0711894853760688,1.009017921814677,3.441769929398765,2.0142118735559738,4.5129594147748335
2025-03-12 00:14:40.100,201.43333333333334,0.7072700000000001,0.35015,0.62757,0.10500000000000001,-2.877,-1.064,-0.95023,-0.33759,0.04096,-0.588,-3.339,0.315,0.15,1.0083054994891183,3.0692425775751255,1.0092481273700733,3.404980176153747,2.0175536268591916,6.474222753728872
2025-03-12 00:14:40.200,201.27586206896552,0.7123111111111111,0.35125555555555554,0.6089333333333333,0.39666666666666667,-2.2244444444444444,-0.4433333333333333,-0.9490500000000001,-0.33702,0.0391,-0.357,-3.1990000000000003,0.546,0.15,1.0007833875347014,2.3026163326330855,1.0078726074757662,3.2648378213932774,2.008655995010468,5.567454154026363
2025-03-12 00:14:40.300,201.3125,0.7113,0.35107,0.6126400000000001,1.162,-0.9870000000000001,-0.784,-0.9514999999999999,-0.3335666666666667,0.03513333333333333,-0.5288888888888889,-3.1033333333333335,0.30333333333333334,0.15,1.0022602478897384,1.714371313339091,1.0088871702139055,3.162659062510376,2.011147418103644,4.877030375849467
2025-03-12 00:14:40.400,201.53571428571428,0.7061333333333333,0.3406888888888889,0.6321777777777778,-0.8400000000000001,-1.8355555555555556,-1.4777777777777779,-0.94954,-0.33819,0.041650000000000006,-0.5740000000000001,-3.528,0.392,0.15,1.007145444398593,2.5017376677071264,1.0088277405979675,3.595820351463627,2.0159731849965605,6.097558019170753
2025-03-12 00:14:40.500,201.42424242424244,0.72005,0.35608,0.61024,0.644,-2.653,-2.072,-0.9498899999999999,-0.33603,0.034999999999999996,-0.511,-2.989,0.45499999999999996,0.15,1.008790278749751,3.427291787986544,1.0081826089553418,3.0663116279986937,2.0169728877050925,6.493603415985238
2025-03-12 00:14:40.600,200.92857142857142,0.70643,0.3577,0.61166,-1.0710000000000002,-1.1480000000000001,-3.087,-0.9514999999999999,-0.3322666666666667,0.04315555555555555,-0.5366666666666666,-3.1655555555555557,0.23333333333333334,0.15,1.0005601383725018,3.4633096887226245,1.0087694433085719,3.2191920618167837,2.0093295816810737,6.682501750539409
2025-03-12 00:14:40.700,200.90322580645162,0.7168777777777778,0.35906666666666665,0.6061555555555556,-0.2411111111111111,3.2044444444444444,-0.32666666666666666,-0.952,-0.33433,0.03242,-0.658,-3.521,-0.182,0.15,1.005120478805193,3.230063447758141,1.0095204828531217,3.5865762225275515,2.0146409616583147,6.816639670285692
2025-03-12 00:14:40.800,200.9,0.6976111111111112,0.3632444444444445,0.6379333333333332,1.3844444444444446,2.5277777777777777,4.394444444444444,-0.9475444444444443,-0.3421444444444444,0.043166666666666666,-1.2988888888888888,-3.9511111111111115,-0.3422222222222222,0.15,1.0127026841789302,5.2552344275863545,1.0083484795311783,4.173189117139003,2.0210511637101085,9.428423544725359
2025-03-12 00:14:40.900,201.67741935483872,0.6953363636363636,0.3341,0.6560909090909092,1.1836363636363638,-1.3872727272727272,3.907272727272727,-0.94603,-0.34453,0.043620000000000006,-0.637,-3.353,0.777,0.15,1.012704670467544,4.311879036620378,1.0077580990495685,3.500300987058113,2.0204627695171125,7.812180023678492
2025-03-12 00:14:41.000,202.6875,0.7041888888888889,0.2994222222222222,0.6429666666666667,3.5700000000000003,-4.161111111111111,-0.13999999999999999,-0.9469100000000001,-0.34432,0.04396,0.392,-2.324,1.589,0.15,0.9994707563703433,5.484464028418123,1.008527288723513,2.8424568598309454,2.0079980450938564,8.326920888249068
2025-03-12 00:14:41.100,201.10344827586206,0.6996,0.36101,0.62263,1.302,-9.645999999999999,-11.039,-0.9535888888888889,-0.3251222222222222,0.03273333333333333,0.40444444444444444,-2.302222222222222,1.5477777777777777,0.15,1.0037113613982858,14.717338108503181,1.0080216761092853,2.803465448069321,2.011733037507571,17.520803556572503
2025-03-12 00:14:41.200,200.80645161290323,0.69358,0.36648000000000003,0.59536,2.065,-3.2409999999999997,-1.456,-0.95686,-0.31903000000000004,0.02309,-1.302,-4.004,-0.49700000000000005,0.15,0.984791519256741,4.109530630132838,1.0089075024996097,4.2396024577783225,1.9936990217563508,8.34913308791116
2025-03-12 00:14:41.300,201.13333333333333,0.7121666666666667,0.353,0.5878222222222222,-0.5366666666666666,-2.481111111111111,-3.3133333333333335,-0.9470444444444445,-0.34565555555555555,0.04717777777777778,-1.8122222222222222,-4.814444444444444,-0.7855555555555556,0.15,0.9885976563038084,4.173979064941259,1.0092555105400989,5.203856475943799,1.9978531668439072,9.377835540885059
2025-03-12 00:14:41.400,201.32258064516128,0.7444,0.3765,0.62137,-0.041999999999999996,-0.041999999999999905,-4.144,-0.94482,-0.34798999999999997,0.04876,-0.329,-2.933,2.268,0.15,1.0401847369097472,4.144425653815013,1.0080473253275364,3.7221706032905044,2.0482320622372834,7.866596257105517
2025-03-12 00:14:41.500,202.0344827586207,0.6916555555555556,0.3629222222222222,0.6132555555555556,-0.5833333333333334,-2.558888888888889,-0.17888888888888888,-0.9512222222222222,-0.3332,0.034466666666666666,-0.03888888888888889,-2.4344444444444444,0.9955555555555556,0.15,0.993067129318725,2.630625659044763,1.0084809899846867,2.6304301859131263,2.0015481193034117,5.261055844957889
2025-03-12 00:14:41.600,201.71875,0.7076100000000001,0.36923,0.61843,-0.196,-0.21000000000000002,-1.5470000000000002,-0.9520799999999999,-0.33119,0.03387,-0.749,-3.7379999999999995,0.22400000000000003,0.15,1.0097021193896742,1.5734436755092318,1.0086081099217872,3.8188769291507674,2.0183102293114614,5.392320604659999
2025-03-12 00:14:41.700,201.42857142857142,0.7119888888888889,0.3622,0.635788888888889,1.6722222222222223,-2.9244444444444446,0.9177777777777778,-0.9479900000000001,-0.34135,0.04391,-0.763,-3.353,0.266,0.11,1.0209527555846072,3.491563907265413,1.0085300940973452,3.4489902870260454,2.029482849681952,6.940554194291458
2025-03-12 00:14:41.800,201.1875,0.69965,0.35301,0.60829,0.238,-3.976,-1.7990000000000002,-0.9496555555555557,-0.3385222222222222,0.03807777777777778,-0.4511111111111111,-2.87,0.6533333333333333,0.06,0.9920397707249442,4.370540126803551,1.0089067778027347,2.977792081226012,2.000946548527679,7.3483322080295626
2025-03-12 00:14:41.900,201.32142857142858,0.70751,0.36722,0.60697,0.406,-1.939,-2.7510000000000003,-0.95052,-0.33501,0.037809999999999996,-0.532,-3.339,0.497,0.03,1.0019149212383254,3.390067550949391,1.008538331745502,3.4174484634007283,2.0104532529838273,6.807516014350119
2025-03-12 00:14:42.000,201.4375,0.7099777777777778,0.3733666666666667,0.6191222222222222,0.7388888888888889,-2.854444444444445,-1.0577777777777777,-0.95061,-0.33466,0.03778,-0.728,-3.3880000000000003,0.315,-0.02,1.0133032313998769,3.1325235360175196,1.0085058334486716,3.4796196631241187,2.0218090648485485,6.612143199141638
2025-03-12 00:14:42.100,201.17241379310346,0.70326,0.36593,0.60854,0.483,-2.772,-0.5389999999999999,-0.9488888888888888,-0.34123333333333333,0.0397,-0.5211111111111112,-3.033333333333333,0.4122222222222222,-0.02,0.9993999820392233,2.8649247808624922,1.0091612364902685,3.10525281768303,2.0085612185294917,5.970177598545522
2025-03-12 00:14:42.200,200.83870967741936,0.7103200000000001,0.36561,0.6064,-0.006999999999999984,-1.197,-1.029,-0.95116,-0.33429,0.03993,-0.49000000000000005,-3.2689999999999997,0.44800000000000006,-0.02,1.0029686607765969,1.5785116407553035,1.0089844174217955,3.335740547464685,2.0119530781983923,4.914252188219988
2025-03-12 00:14:42.300,200.7,0.7036888888888888,0.3665555555555555,0.6162777777777778,0.5211111111111111,-1.221111111111111,-0.7933333333333334,-0.950088888888889,-0.3379666666666667,0.03816666666666667,-0.6066666666666667,-3.1888888888888887,0.38111111111111107,-0.02,1.0046588112573527,1.5466243608518024,1.0091318343072653,3.268379180746292,2.013790645564618,4.815003541598094
2025-03-12 00:14:42.400,200.6875,0.70683,0.36463999999999996,0.6184000000000001,-2.1210000000000004,-2.1350000000000002,-0.385,-0.95017,-0.33599,0.039029999999999995,-0.532,-3.3600000000000003,0.329,-0.05,1.0074668920118417,3.033989288049647,1.008581008099994,3.4177280465244744,2.0160479001118357,6.451717334574122
2025-03-12 00:14:42.500,200.53571428571428,0.7066777777777777,0.36263333333333336,0.6090222222222221,0.35777777777777775,-2.348888888888889,-1.2911111111111113,-0.9492100000000001,-0.33798,0.03963,-0.525,-3.276,0.441,-0.05,1.0009018349517982,2.7041175735999077,1.008365331315987,3.3469810277323053,2.0092671662677852,6.051098601332213
2025-03-12 00:14:42.600,199.9375,0.7077899999999999,0.36566,0.61444,0.371,-1.575,-1.6169999999999998,-0.9497555555555556,-0.33661111111111114,0.0378,-0.6377777777777778,-3.29,0.33444444444444443,-0.05,1.0060866927357701,2.287565299614417,1.0083508791249696,3.367894532233293,2.0144375718607397,5.65545983184771
2025-03-12 00:14:42.700,200.17857142857142,0.70864,0.36675,0.6116900000000001,0.588,-2.597,-1.057,-0.9494,-0.33795000000000003,0.03931,-0.5740000000000001,-3.367,0.413,-0.01,1.0054058226407883,2.8648563663820914,1.0085216103782806,3.4404554930997144,2.013927433019069,6.305311859481806
2025-03-12 00:14:42.800,199.28125,0.7107,0.36817777777777777,0.6152666666666666,0.6844444444444444,-2.947777777777778,-0.6844444444444444,-0.9495,-0.3375444444444444,0.038766666666666665,-0.4822222222222222,-3.227777777777778,0.5288888888888889,0.02,1.0095555641768776,3.102631499585831,1.0084589017008838,3.306177719226707,2.0180144658777612,6.408809218812538
2025-03-12 00:14:42.900,200.07142857142858,0.70823,0.36829999999999996,0.60478,-0.119,-2.1420000000000003,-0.021000000000000008,-0.95085,-0.33428,0.03846,-0.609,-3.2129999999999996,0.357,0.13,1.001495617214574,2.145405789122422,1.008631752672897,3.2896350861455743,2.0101273698874706,5.435040875267996
2025-03-12 00:14:43.000,199.84375,0.7081333333333333,0.3661666666666667,0.6059333333333333,-0.031111111111111114,-0.8711111111111111,0.1011111111111111,-0.94939,-0.33706,0.037880000000000004,-0.588,-3.437,0.252,0.23,1.001342124351113,0.8775112112821841,1.0081595657930345,3.496028747021397,2.0095016901441474,4.373539958303581
2025-03-12 00:14:43.100,199.53571428571428,0.71253,0.36635,0.61337,-0.05599999999999998,-0.805,0.924,-0.9491666666666667,-0.3388777777777778,0.03941111111111111,-0.6066666666666667,-3.453333333333333,0.29555555555555557,0.34,1.0090263030763866,1.2267587374867155,1.0086172440830707,3.518651537446598,2.0176435471594574,4.745410274933313
2025-03-12 00:14:43.200,199.8125,0.70824,0.35164999999999996,0.61913,0.812,-1.085,-1.4140000000000001,-0.9494199999999999,-0.33736,0.03846,-0.38499999999999995,-3.2479999999999998,0.44800000000000006,0.47,1.0042826180911426,1.9585619724685763,1.0083101098372464,3.3012774800067928,2.0125927279283893,5.259839452475369
2025-03-12 00:14:43.300,199.41379310344828,0.7071625,0.3579,0.6175125,-0.12249999999999998,-1.9775,-1.0675,-0.9499299999999999,-0.33788,0.03948,-0.476,-3.318,0.34299999999999997,0.61,1.0047352382904164,2.250570760940433,1.0090037510832157,3.369473104210805,2.013738989373632,5.6200438651512385
2025-03-12 00:14:43.400,199.58064516129033,0.708890909090909,0.3575818181818182,0.6178454545454545,-0.11454545454545455,-1.6481818181818182,-1.069090909090909,-0.9502888888888888,-0.3377,0.03903333333333334,-0.6066666666666667,-3.2588888888888885,0.4122222222222222,0.69,1.00604377806755,1.9678870239022808,1.0092640206887344,3.340408417403735,2.015307798756284,5.308295441306016
2025-03-12 00:14:43.500,200.21875,0.7084666666666667,0.3635,0.6073333333333334,0.14,-1.9833333333333334,-0.98,-0.94984,-0.33755,0.039290000000000005,-0.45499999999999996,-3.185,0.441,0.69,1.0014544650434964,2.216666666666667,1.00880113610166,3.2474191290931325,2.0102556011451567,5.464085795759799
2025-03-12 00:14:43.600,199.86206896551724,0.7100500000000001,0.35796,0.61678,1.1480000000000001,-0.35700000000000004,-0.644,-0.9503888888888888,-0.33665555555555554,0.039099999999999996,-0.49,-3.321111111111111,0.35777777777777775,0.69,1.0063418566769446,1.3638507982913675,1.0090118003323234,3.3760752288148566,2.015353657009268,4.739926027106224
2025-03-12 00:14:43.700,199.74193548387098,0.71424,0.35374999999999995,0.6303,0.959,-2.807,-1.6239999999999999,-0.94959,-0.33784000000000003,0.04105,-0.5599999999999999,-3.346,0.378,0.5549999999999999,1.0161475926753947,3.3817607839703863,1.0087329360142852,3.4135318952662503,2.02488052868968,6.795292679236637
2025-03-12 00:14:43.800,199.53333333333333,0.6993666666666667,0.3586888888888889,0.6111111111111112,0.32666666666666666,-4.27,-1.1277777777777778,-0.94901,-0.34009,0.03817,-0.5109999999999999,-3.2060000000000004,0.5109999999999999,0.27,0.9956044614103771,4.428486629443572,1.0088300833638935,3.2864384978270933,2.0044345447742704,7.714925127270666
2025-03-12 00:14:43.900,199.59375,0.71106,0.36737000000000003,0.59843,0.7,0.24499999999999997,-2.093,-0.9508333333333332,-0.33428888888888886,0.03927777777777778,-0.4511111111111111,-3.1655555555555552,0.43555555555555553,0.05,0.9993425365709198,2.220512103096941,1.0086505008373843,3.2270655171303617,2.007993037408304,5.447577620227303
2025-03-12 00:14:44.000,200.21428571428572,0.7117333333333333,0.35873333333333335,0.6278555555555555,1.6722222222222223,-1.0344444444444445,1.4855555555555555,-0.9489777777777779,-0.33763333333333334,0.03931111111111111,-0.5755555555555555,-3.3055555555555554,0.3188888888888889,-0.16,1.0146213780835676,2.464402113653082,1.0080180821545899,3.370408261895263,2.0226394602381577,5.834810375548345
2025-03-12 00:14:44.100,199.75,0.70487,0.35005,0.61956,0.6020000000000001,-3.4370000000000003,-0.392,-0.9494727272727274,-0.33796363636363635,0.04016363636363637,-0.5409090909090909,-3.4490909090909088,0.21,-0.34,1.001614353431499,3.511272846134291,1.0086282749481066,3.4975578256551603,2.0102426283796055,7.008830671789451
2025-03-12 00:14:44.200,199.64285714285714,0.71175,0.35428,0.6118,-0.007000000000000006,-2.415,-1.169,-0.9491444444444443,-0.3390444444444445,0.04022222222222222,-0.5677777777777778,-3.118888888888889,0.5211111111111111,-0.42,1.0031957041873734,2.6830644792848344,1.0086843603867808,3.212692997517238,2.011880064574154,5.895757476802072
2025-03-12 00:14:44.300,199.78125,0.7121444444444445,0.36219999999999997,0.6096111111111111,0.3188888888888889,-2.1544444444444446,0.08555555555555557,-0.94999,-0.33582999999999996,0.037570000000000006,-0.469,-3.2409999999999997,0.532,-0.48,1.0049697789203464,2.179596462820754,1.0083026797048593,3.317689858922922,2.013272458625206,5.497286321743676
2025-03-12 00:14:44.400,200.10344827586206,0.7087600000000001,0.35562,0.61249,0.44800000000000006,-0.826,-0.749,-0.9511099999999999,-0.33623,0.03891,-0.5389999999999999,-3.4230000000000005,0.273,-0.48,1.0019732142627367,1.201657605143828,1.0095418926919277,3.4759141243707394,2.0115151069546644,4.677571729514567
2025-03-12 00:14:44.500,200.1290322580645,0.7111333333333333,0.35071111111111114,0.6213333333333333,-1.788888888888889,-1.2444444444444445,-0.8088888888888888,-0.9481999999999999,-0.34104444444444443,0.04013333333333333,-0.5444444444444445,-3.2977777777777777,0.35,-0.51,1.0073549584658226,2.3244497556769574,1.0084667756207262,3.360693086952654,2.0158217340865487,5.685142842629611
2025-03-12 00:14:44.600,199.63333333333333,0.71198,0.35688,0.6119600000000001,0.098,-2.457,-1.064,-0.94954,-0.33726,0.03927,-0.462,-3.213,0.588,-0.51,1.0043773675267678,2.6792814335190696,1.008420870519844,3.2988720799691524,2.012798238046612,5.9781535134882215
2025-03-12 00:14:44.700,200.1290322580645,0.7096899999999999,0.3564,0.6178,0.567,-1.582,-0.917,-0.9498,-0.33661111111111114,0.03838888888888889,-0.5288888888888889,-3.2977777777777777,0.38111111111111107,-0.51,1.0061598760137476,1.914445611658895,1.008414987449899,3.361592986577555,2.014574863463647,5.27603859823645
2025-03-12 00:14:44.800,199.89655172413794,0.7107,0.3537,0.6138444444444445,0.8711111111111111,-2.201111111111111,-0.8555555555555556,-0.9497899999999999,-0.33765999999999996,0.0391,-0.5740000000000001,-3.437,0.294,-0.45,1.003495481791178,2.5170816434911285,1.008783490001695,3.496981698550909,2.012278971792873,6.0140633420420375
2025-03-12 00:14:44.900,199.90625,0.70511,0.35217,0.6187400000000001,0.287,-1.7009999999999998,-1.078,-0.9487222222222221,-0.33996666666666664,0.041322222222222225,-0.3655555555555556,-3.01,0.4744444444444444,-0.36,1.002019465180193,2.0341715758509653,1.0086420155000972,3.0690109799513143,2.01066148068029,5.103182555802279
2025-03-12 00:14:45.000,200.21428571428572,0.7147444444444444,0.3605333333333334,0.6079777777777777,-0.3733333333333333,-1.4622222222222223,-0.7777777777777778,-0.9510500000000001,-0.33510999999999996,0.03785,-0.6719999999999999,-3.437,0.385,-0.23,1.0052267821642273,1.6977661430665916,1.0090725628516515,3.5231772592363275,2.014299345015879,5.220943402302919
2025-03-12 00:14:45.100,200.0625,0.71208,0.36016,0.61351,0.798,-1.113,0.14700000000000002,-0.9491555555555556,-0.33871111111111113,0.041211111111111115,-0.4666666666666667,-3.1888888888888887,0.3888888888888889,-0.04,1.006562304132238,1.377382299871753,1.0086227446925393,3.2462323840658764,2.0151850488247773,4.62361468393763
2025-03-12 00:14:45.200,200.32142857142858,0.70742,0.34686,0.62707,1.225,-1.169,0.18200000000000002,-0.94919,-0.33660999999999996,0.03881,-0.497,-3.2060000000000004,0.357,0.17,1.0069616183847327,1.7030296532943872,1.0078562220376475,3.2638771422956476,2.0148178404223804,4.966906795590035
2025-03-12 00:14:45.300,200.28125,0.7062444444444445,0.3438777777777778,0.6222555555555556,-0.56,-2.4344444444444444,-2.0844444444444443,-0.94937,-0.34043999999999996,0.0405,-0.518,-3.1710000000000003,0.434,0.46,1.0021153215961613,3.2534640608222074,1.0093775510184482,3.242209277637704,2.0114928726146095,6.495673338459911
2025-03-12 00:14:45.400,199.75862068965517,0.71414,0.36376,0.5980000000000001,-0.12599999999999997,-2.1350000000000002,-1.253,-0.9504999999999999,-0.33715555555555554,0.03953333333333334,-0.4511111111111112,-3.2433333333333336,0.5055555555555555,0.65,0.9999606378253096,2.4787315304405197,1.00930025417931,3.3133515909773448,2.0092608920046198,5.792083121417864
2025-03-12 00:14:45.500,200.16129032258064,0.7093333333333334,0.3555888888888889,0.615,1.2911111111111113,-1.8433333333333333,0.18666666666666668,-0.9498899999999999,-0.33751,0.03909,-0.63,-3.2689999999999997,0.38499999999999995,0.71,1.0039034991865565,2.25824934926522,1.0088270616413895,3.351340925659459,2.012730560827946,5.609590274924679
2025-03-12 00:14:45.600,200.2,0.70897,0.34761000000000003,0.6227,0.42700000000000005,-2.436,-0.826,-0.94939,-0.33769,0.03871,-0.5599999999999999,-3.2969999999999997,0.378,0.71,1.0055975651322948,2.6074318783047814,1.0084018902699459,3.3655152651562874,2.0139994554022405,5.972947143461068
2025-03-12 00:14:45.700,200.74193548387098,0.70785,0.35336,0.6101,0.7979999999999999,-1.582,-0.623,-0.9488888888888888,-0.33911111111111114,0.04094444444444444,-0.49,-3.3133333333333335,0.43555555555555553,0.74,0.9990680267629427,1.8782057927713887,1.0084953726550592,3.377571082857189,2.007563399418002,5.255776875628578
2025-03-12 00:14:45.800,199.86206896551724,0.7115666666666667,0.3535888888888889,0.6186666666666666,0.56,-0.8866666666666666,-0.6377777777777778,-0.94995,-0.33653,0.03772,-0.567,-3.311,0.413,0.74,1.0070256540432494,1.2274112072182404,1.008503962213337,3.3844909513839743,2.015529616256586,4.611902158602215
2025-03-12 00:14:45.900,200.125,0.71126,0.35008,0.62005,0.336,-3.052,-0.378,-0.9489222222222222,-0.33818888888888887,0.04055555555555555,-0.5366666666666666,-3.2588888888888885,0.3888888888888889,0.645,1.006433701989356,3.0936198861527897,1.0082013000792458,3.3255980618733525,2.014635002068602,6.419217948026143
2025-03-12 00:14:46.000,200.36666666666667,0.7082999999999999,0.35075555555555554,0.6115777777777778,0.35,-0.8866666666666667,-1.4311111111111112,-0.9501099999999999,-0.33744,0.04006,-0.434,-3.2270000000000003,0.504,0.55,0.9993726672391492,1.7195222563617654,1.009048843862377,3.2948294341285713,2.0084215111015262,5.0143516904903365
2025-03-12 00:14:46.100,200.26666666666668,0.71429,0.35815,0.62284,0.5740000000000001,-2.044,-0.399,-0.9498899999999999,-0.33794,0.03928,-0.5740000000000001,-3.2689999999999997,0.45499999999999996,0.43,1.0131195843531997,2.160234478013903,1.0089783813838629,3.350054029415048,2.0220979657370624,5.510288507428951
2025-03-12 00:14:46.200,200.875,0.7084900000000001,0.34876,0.6159600000000001,0.679,-2.4850000000000003,-0.42700000000000005,-0.9498555555555556,-0.3378111111111111,0.03953333333333334,-0.5133333333333333,-3.251111111111111,0.3655555555555556,0.31,1.001498047576729,2.611243956431494,1.0089126858426951,3.311625798923961,2.010410733419424,5.922869755355455
2025-03-12 00:14:46.300,201.39285714285714,0.7102222222222222,0.35054444444444444,0.6182777777777777,0.4666666666666667,-1.6877777777777778,-1.1355555555555557,-0.94877,-0.33867,0.03982,-0.497,-3.2340000000000004,0.476,0.21,1.0047708310669468,2.087069242907709,1.0081902172705308,3.3064090793487733,2.012961048337478,5.393478322256483
2025-03-12 00:14:46.400,201.25,0.71019,0.3524,0.6154200000000001,0.13999999999999999,-2.31,-0.9380000000000001,-0.9496399999999999,-0.33781,0.04021,-0.511,-3.22,0.462,0.09,1.0036420539714346,2.4971071262563007,1.0087361249603386,3.29286577315262,2.0123781789317734,5.789972899408921
2025-03-12 00:14:46.500,201.96428571428572,0.7107444444444444,0.3528777777777778,0.6171222222222222,0.2411111111111111,-1.2522222222222221,-0.63,-0.949875,-0.337875,0.0399625,-0.49,-3.395,0.44625,-0.03,1.0052463521537984,1.42235546250872,1.008969292226602,3.459084280918868,2.0142156443804007,4.881439743427588
2025-03-12 00:14:46.600,200.90625,0.71124,0.34922,0.6144999999999999,0.938,-2.4850000000000003,-1.127,-0.9503,-0.33667272727272723,0.03948181818181818,-0.5345454545454545,-3.1818181818181817,0.3054545454545455,-0.08,1.0027099261501304,2.8853419208128526,1.0089486752338785,3.2408345012454447,2.011658601384009,6.126176422058297
2025-03-12 00:14:46.700,201.32142857142858,0.70891,0.35345,0.62,0.273,-0.301,-2.387,-0.9495333333333333,-0.3393777777777778,0.03950000000000001,-0.6766666666666666,-3.1733333333333333,0.39666666666666667,-0.12,1.005922606665145,2.4213423962752563,1.009133825198865,3.2688326152721046,2.01505643186401,5.69017501154736
2025-03-12 00:14:46.800,201.34375,0.7159444444444445,0.3540111111111111,0.63,0.6844444444444444,-2.947777777777778,-1.3144444444444445,-0.9495699999999999,-0.33833,0.0408,-0.441,-3.122,0.595,-0.06,1.0172513525776152,3.299336633661716,1.0088681845513814,3.208643015357115,2.026119537128997,6.50797964901883
2025-03-12 00:14:46.900,201.36666666666667,0.70597,0.35423,0.6169800000000001,0.434,-3.843,-2.338,-0.9513,-0.33496,0.03803,-0.476,-3.2969999999999997,0.441,0.01,1.0022658600391414,4.519208890945405,1.009265164612353,3.3602479075211096,2.0115310246514944,7.879456798466515
2025-03-12 00:14:47.000,201.48387096774192,0.71487,0.36518,0.60799,1.169,-3.024,-1.8059999999999998,-0.9490444444444444,-0.33993333333333337,0.040400000000000005,-0.5988888888888889,-3.2433333333333336,0.29555555555555557,0.07,1.006999200297597,3.71116868385149,1.008896520284402,3.3113791837790845,2.015895720581999,7.022547867630575
2025-03-12 00:14:47.100,201.06896551724137,0.7122888888888889,0.3558444444444444,0.6143888888888889,1.8199999999999998,-3.647777777777778,-1.2988888888888888,-0.9492499999999999,-0.33863,0.04036,-0.49000000000000005,-3.185,0.609,0.12,1.0057109110806477,4.278527207080539,1.0086499734794028,3.2795130736132156,2.0143608845600505,7.5580402806937546
2025-03-12 00:14:47.200,201.4375,0.71048,0.35520999999999997,0.6107199999999999,0.39899999999999997,-2.982,-1.841,-0.9506111111111112,-0.3349555555555555,0.03822222222222223,-0.7155555555555556,-3.352222222222222,0.4977777777777778,0.15,1.001965514825735,3.5271526760263727,1.0086216570335167,3.463696911725432,2.0105871718592514,6.990849587751805
2025-03-12 00:14:47.300,201.10714285714286,0.7143555555555555,0.3654777777777778,0.6076666666666666,-0.03888888888888889,-3.017777777777778,-2.348888888888889,-0.94985,-0.33612000000000003,0.03875,-0.595,-3.3880000000000003,0.329,0.15,1.0065468908998958,3.8243658394659468,1.0083120744095055,3.455547713460198,2.0148589653094016,7.2799135529261445
2025-03-12 00:14:47.400,201.125,0.71632,0.36941999999999997,0.59984,0.5740000000000001,-3.1079999999999997,-1.582,-0.9486699999999999,-0.33916,0.04021,-0.45499999999999996,-3.122,0.45499999999999996,0.15,1.0046857739611923,3.534383114491127,1.0082763106410861,3.187621997665344,2.0129620846022784,6.722005112156471
2025-03-12 00:14:47.500,200.89285714285714,0.7093333333333334,0.3661111111111111,0.6046333333333334,0.9099999999999999,-1.75,-0.21777777777777776,-0.9505666666666666,-0.3355666666666666,0.03882222222222222,-0.6066666666666667,-3.2744444444444443,0.4122222222222222,0.15,1.001385336039313,1.9844463108116146,1.008805799197163,3.3555860925762815,2.010191135236476,5.340032403387896
2025-03-12 00:14:47.600,200.90625,0.71208,0.36107999999999996,0.6107,0.721,-1.435,-1.3299999999999998,-0.9508099999999999,-0.33598,0.0387,-0.609,-3.2479999999999998,0.385,0.15,1.0051821639881997,2.085177690270064,1.0091679277999277,3.326952058566519,2.0143500917881276,5.412129748836583
2025-03-12 00:14:47.700,201.0344827586207,0.71102,0.36512,0.60637,-0.168,-2.758,-1.4769999999999999,-0.9481888888888889,-0.33992222222222224,0.04087777777777778,-0.56,-3.4144444444444444,0.4511111111111112,0.16,1.003267976016378,3.1331002218250217,1.0081072754865372,3.489345511520095,2.0113752515029155,6.622445733345117
2025-03-12 00:14:47.800,200.19354838709677,0.7113333333333334,0.3635777777777778,0.5996555555555556,0.023333333333333327,-1.3377777777777777,-1.151111111111111,-0.95062,-0.33517,0.03711,-0.364,-3.136,0.42700000000000005,0.16,0.9988847265393442,1.76500725700603,1.008659737176021,3.1857998995542705,2.0075444637153654,4.9508071565603
2025-03-12 00:14:47.900,200.0,0.71478,0.36698,0.6063,0.33599999999999997,-0.364,-0.504,-0.9492100000000001,-0.33813,0.04032,-0.6439999999999999,-3.339,0.308,0.16,1.0065706427270766,0.7066880499909419,1.008442969830223,3.4144576436090106,2.0150136125572997,4.121145693599953
2025-03-12 00:14:48.000,200.74193548387098,0.71057,0.36205000000000004,0.61224,-0.01399999999999999,-2.324,-0.756,-0.9508888888888889,-0.33682222222222225,0.03861111111111112,-0.5055555555555555,-3.126666666666667,0.3888888888888889,0.16,1.0053992962997338,2.443912437056614,1.009519542305297,3.1910602363632634,2.0149188386050305,5.6349726734198775
2025-03-12 00:14:48.100,200.42857142857142,0.7126555555555556,0.36610000000000004,0.6049,0.14777777777777779,-1.4233333333333333,-0.2255555555555556,-0.9500299999999999,-0.33843,0.03919,-0.5389999999999999,-3.2410000000000005,0.434,0.13,1.003897983295214,1.4486515654306564,1.0092708862837567,3.3140546163272573,2.013168869578971,4.762706181757913
2025-03-12 00:14:48.200,200.375,0.7147300000000001,0.36178999999999994,0.6091,0.38499999999999995,-1.379,-0.728,-0.9505111111111112,-0.3366222222222222,0.03874444444444444,-0.5677777777777778,-3.3133333333333335,0.4277777777777778,0.09,1.0063467528640415,1.6061911467817271,1.0091020884007798,3.3887377015455984,2.0154488412648215,4.9949288483273255
2025-03-12 00:14:48.300,200.57142857142858,0.7139,0.36292,0.61075,0.32199999999999995,-2.149,-0.294,-0.9498900000000001,-0.33824,0.03943,-0.553,-3.311,0.42699999999999994,0.04,1.0071641866647165,2.192788407484863,1.0090847509500875,3.3839117896304565,2.016248937614804,5.576700197115319
2025-03-12 00:14:48.400,200.4516129032258,0.7093333333333334,0.3605,0.6060888888888889,0.6611111111111111,-1.4544444444444444,-0.3111111111111111,-0.94974,-0.33763,0.03875,-0.483,-3.2340000000000004,0.392,0.04,1.000228858318108,1.6276568024822267,1.0087128664788607,3.2932824051392866,2.0089417247969688,4.9209392076215135
2025-03-12 00:14:48.500,200.43333333333334,0.71175,0.36006,0.60685,0.259,-1.036,-0.539,-0.9506222222222223,-0.3360111111111111,0.03903333333333334,-0.6455555555555557,-3.391111111111111,0.33444444444444443,0.0,1.0022465707599104,1.1962014880445517,1.0090142106451974,3.4681738176783514,2.011260781405108,4.664375305722903
2025-03-12 00:14:48.600,200.6451612903226,0.71228,0.3593,0.61537,0.371,-1.61,-0.371,-0.94912,-0.33857,0.03935,-0.497,-3.136,0.504,0.0,1.0075314016446337,1.6933345800520345,1.0084675710205064,3.214890511354936,2.01599897266514,4.908225091406971
2025-03-12 00:14:48.700,200.03333333333333,0.7112888888888889,0.35613333333333336,0.6062,0.12444444444444445,-1.2444444444444445,-1.1666666666666667,-0.95061,-0.33624,0.0385,-0.532,-3.248,0.371,-0.04,1.000120630008151,1.7103331564852622,1.0090584520730204,3.3121245447597527,2.0091790820811717,5.022457701245015
2025-03-12 00:14:48.800,200.36666666666667,0.71433,0.36306,0.6147,0.5740000000000001,-1.512,-0.665,-0.9491999999999999,-0.33845555555555557,0.03931111111111111,-0.56,-3.1033333333333335,0.39666666666666667,-0.09,1.009918809855525,1.7486694942155308,1.008502933333964,3.1783049290812584,2.0184217431894886,4.926974423296789
2025-03-12 00:14:48.900,200.34375,0.71019,0.36009,0.6143799999999999,0.7,-1.953,0.020999999999999998,-0.9496399999999999,-0.33755,0.040010000000000004,-0.441,-3.2340000000000004,0.483,-0.09,1.0057322847557395,2.0747650469390506,1.008641131523001,3.299473594378352,2.0143734162787403,5.374238641317403
2025-03-12 00:14:49.000,199.89285714285714,0.7118599999999999,0.35644,0.61039,0.35,-1.7850000000000001,-0.889,-0.9496555555555557,-0.33623333333333333,0.03875555555555556,-0.6222222222222222,-3.3677777777777775,0.3733333333333333,-0.09,1.0031799864929523,2.02461008591778,1.0081669116413192,3.4450639227884823,2.0113468981342715,5.469674008706262
2025-03-12 00:14:49.100,200.15625,0.7116111111111111,0.3585666666666667,0.6122111111111112,0.32666666666666666,-1.54,-0.9333333333333333,-0.9494,-0.33891,0.04066,-0.588,-3.311,0.357,-0.09,1.0048695798307041,1.8301426781052406,1.008897211662318,3.381702825500786,2.013766791493022,5.2118455036060265
2025-03-12 00:14:49.200,199.42857142857142,0.71266,0.35931,0.61541,0.392,-1.9809999999999999,-0.8960000000000001,-0.9503555555555556,-0.3367777777777778,0.03807777777777778,-0.4511111111111111,-3.243333333333333,0.4666666666666667,-0.09,1.0078280705556875,2.2092625466431097,1.0089820963430127,3.307641172112959,2.0168101668987,5.516903718756069
2025-03-12 00:14:49.300,200.15625,0.7069099999999999,0.3585,0.61137,0.476,-1.876,-0.693,-0.94941,-0.33906000000000003,0.03895,-0.40599999999999997,-3.2270000000000003,0.40599999999999997,-0.05,1.0010081293376192,2.0557726041564033,1.0088895550058985,3.2776822603785134,2.0098976843435175,5.333454864534916
2025-03-12 00:14:49.400,199.96428571428572,0.7127333333333333,0.3584,0.6108555555555556,0.4977777777777778,-1.2522222222222221,-0.27222222222222225,-0.94994,-0.3372,0.03923,-0.63,-3.3600000000000003,0.357,-0.05,1.004780510458643,1.374753850021213,1.008775909952255,3.437142563234758,2.013556420410898,4.811896413255971
2025-03-12 00:14:49.500,199.1818181818182,0.71151,0.353,0.6122500000000001,0.329,-2.121,1.141,-0.95017,-0.33823,0.03993,-0.525,-3.255,0.45499999999999996,-0.05,1.0028487137150848,2.430794726010405,1.0093646351542143,3.3283141378181234,2.012213348869299,5.759108863828528
2025-03-12 00:14:49.600,199.66666666666666,0.7075400000000001,0.35919999999999996,0.61493,0.7070000000000001,-0.952,-1.0150000000000001,-0.9510111111111113,-0.33726666666666666,0.03914444444444445,-0.5911111111111111,-3.4533333333333336,0.35777777777777775,-0.05,1.0038806684561665,1.5608901306626295,1.0098035578428601,3.521779151943195,2.0136842262990267,5.082669282605824
2025-03-12 00:14:49.700,199.4375,0.72446,0.36307,0.62223,0.952,-1.183,-1.561,-0.9497500000000001,-0.33608,0.03533,-0.623,-3.2060000000000004,0.33599999999999997,-0.05,1.0216811094465825,2.177731388394813,1.0080788847109141,3.2832089485745497,2.0297599941574966,5.4609403369693625
2025-03-12 00:14:49.800,199.36666666666667,0.7348111111111111,0.38216666666666665,0.6212222222222222,0.7466666666666667,-2.792222222222222,3.3133333333333335,-0.94999,-0.33954,0.04657,-0.7140000000000001,-3.304,0.329,-0.05,1.035333656125489,4.396839072238202,1.0099193911397089,3.396241010293586,2.0452530472651977,7.793080082531787
2025-03-12 00:14:49.900,198.73333333333332,0.68261,0.30501,0.60507,1.9460000000000002,-5.698,0.20299999999999993,-0.9513,-0.33375,0.03271,-0.259,-3.22,0.658,-0.06,0.9618197425193559,6.0245604818940945,1.0086776970866362,3.2967324732225394,1.970497439605992,9.321292955116634
2025-03-12 00:14:50.000,198.36666666666667,0.7241333333333333,0.3762111111111111,0.6338666666666667,-0.7233333333333333,-4.207777777777778,-6.082222222222223,-0.9507333333333333,-0.33584444444444445,0.03964444444444445,-1.0344444444444445,-3.748888888888889,-0.2411111111111111,-0.06,1.033291263719486,7.431152810887785,1.0090872330728484,3.8964570801919245,2.0423784967923346,11.32760989107971
2025-03-12 00:14:50.100,198.5625,0.69784,0.35688,0.5692999999999999,-0.03499999999999996,-5.845000000000001,0.42000000000000004,-0.9461299999999999,-0.34536,0.04081,-0.623,-3.4579999999999997,0.301,-0.06,0.9687344785853345,5.8601749120653395,1.0080183344562736,3.526541365133833,1.976752813041608,9.386716277199172
2025-03-12 00:14:50.200,199.11111111111111,0.7354333333333334,0.3544555555555556,0.5848333333333334,-0.7544444444444444,2.1466666666666665,-3.663333333333333,-0.95077,-0.33632999999999996,0.04338,-0.371,-3.052,0.637,-0.06,1.0042564196557338,4.31246742696591,1.009437113543979,3.13976336687974,2.013693533199713,7.452230793845649
2025-03-12 00:14:50.300,199.27272727272728,0.71819,0.40254,0.64182,0.08400000000000002,-3.164,5.32,-0.9508222222222221,-0.33595555555555556,0.033633333333333335,-0.7622222222222222,-3.227777777777778,0.3188888888888889,-0.06,1.0439196521284577,6.190343447661042,1.0089897099036034,3.331849669811383,2.052909362032061,9.522193117472424
2025-03-12 00:14:50.400,198.75,0.7038300000000001,0.30617,0.5654600000000001,0.168,-2.891,2.646,-0.95137,-0.33468,0.04182,-0.721,-3.9550000000000005,-0.294,-0.05,0.9533424093157716,3.9226803336494296,1.0093881769170867,4.030918257667849,1.9627305862328583,7.953598591317278
2025-03-12 00:14:50.500,198.625,0.7165444444444444,0.34858888888888884,0.6288222222222222,0.4588888888888889,2.481111111111111,-1.6644444444444444,-0.9444800000000001,-0.35136,0.04242,-0.567,-3.087,0.637,-0.05,1.0150702150499153,3.0227250398715833,1.0086108151313866,3.202628139512922,2.0236810301813017,6.225353179384506
2025-03-12 00:14:50.600,198.57142857142858,0.72024,0.34608999999999995,0.61254,0.378,-2.408,-2.415,-0.9522,-0.3316444444444444,0.036977777777777776,-0.35777777777777775,-2.8466666666666667,0.9333333333333333,-0.05,1.0068411976573068,3.431264052794538,1.008979798400467,3.0170560419875905,2.0158209960577738,6.448320094782129
2025-03-12 00:14:50.700,198.65625,0.71526,0.36501,0.60838,0.777,-3.528,-3.5490000000000004,-0.95056,-0.33784000000000003,0.0393,-0.497,-3.3880000000000003,0.273,-0.05,1.0074499452081975,5.064179499188393,1.0095764801143101,3.4351247430042484,2.0170264253225074,8.499304242192641
2025-03-12 00:14:50.800,198.73333333333332,0.7235444444444444,0.35454444444444444,0.6044555555555555,1.1744444444444444,-1.6566666666666667,-1.6022222222222222,-0.9477,-0.34209,0.04031,-0.609,-3.1990000000000003,0.392,0.02,1.0072660248488552,2.5866929170107493,1.0083579494405743,3.279961280259266,2.0156239742894293,5.866654197270016
2025-03-12 00:14:50.900,198.70967741935485,0.7132099999999999,0.35394,0.60635,-0.77,-2.513,-1.344,-0.9484666666666668,-0.3402888888888889,0.041,-0.4822222222222222,-3.3133333333333335,0.668888888888889,0.165,1.000800854416102,2.9520171069965024,1.0084971718745732,3.4144001515730005,2.009298026290675,6.366417258569503
2025-03-12 00:14:51.000,198.68965517241378,0.7203555555555555,0.36708888888888885,0.6055333333333333,-0.06222222222222223,-1.7344444444444445,-1.921111111111111,-0.95174,-0.33307,0.03791,-0.553,-3.332,0.364,0.28,1.0101173182077465,2.588983784622267,1.009049959417273,3.397135410901367,2.0191672776250194,5.986119195523634
2025-03-12 00:14:51.100,198.15625,0.7109099999999999,0.36103,0.59985,0.476,-1.764,0.5880000000000001,-0.9484600000000001,-0.34262000000000004,0.039290000000000005,-0.749,-3.353,0.16799999999999998,0.35,0.9977753812857881,1.919379066260753,1.0092118410423057,3.4397433043760692,2.006987222328094,5.359122370636822
2025-03-12 00:14:51.200,198.25,0.72165,0.35005,0.60999,0.46900000000000003,-0.665,-0.588,-0.9484,-0.3399111111111111,0.04256666666666667,-0.3888888888888889,-3.461111111111111,0.5288888888888889,0.35,1.0076713378378885,1.0039571704012078,1.0083719772821442,3.5228182110560495,2.016043315120033,4.5267753814572576
2025-03-12 00:14:51.300,198.375,0.7170111111111112,0.3541111111111111,0.6152,0.4122222222222222,-1.3222222222222222,-0.7933333333333334,-0.94823,-0.3387,0.03981,-0.385,-2.9539999999999997,0.6020000000000001,0.35,1.0089453168874594,1.596112948136778,1.007691748006304,3.039201375361626,2.0166370648937635,4.635314323498404
2025-03-12 00:14:51.400,198.58620689655172,0.7147111111111112,0.35357777777777777,0.6038222222222223,-0.09333333333333334,-2.1077777777777778,-1.2366666666666668,-0.95136,-0.33654,0.03807000000000001,-0.539,-3.255,0.336,0.35,1.000215223506088,2.445563885088546,1.0098486748518314,3.316389904700592,2.0100638983579193,5.761953789789137
2025-03-12 00:14:51.500,198.32258064516128,0.71835,0.35444,0.61083,0.735,-0.77,-0.9730000000000001,-0.9486777777777777,-0.34230000000000005,0.04282222222222223,-0.4977777777777778,-3.4066666666666667,0.4588888888888889,0.35,1.007356801237774,1.4421698929044386,1.0094516128896085,3.473289435991887,2.0168084141273823,4.9154593288963255
2025-03-12 00:14:51.600,198.4375,0.7204200000000001,0.35667,0.6159600000000001,0.42699999999999994,-2.394,-1.6030000000000002,-0.9496,-0.33843,0.03928,-0.294,-2.9539999999999997,0.525,0.35,1.012731547301653,2.9125888827639237,1.0088696364248455,3.0146603457106074,2.0216011837264984,5.9272492284745315
2025-03-12 00:14:51.700,197.71428571428572,0.71452,0.35638000000000003,0.6048199999999999,1.141,-2.709,-0.728,-0.9491444444444443,-0.3394888888888889,0.040233333333333336,-0.6144444444444445,-3.2433333333333336,0.4588888888888889,0.37,1.001674980819627,3.0282909371459015,1.0088342793590415,3.3327664332751303,2.0105092601786687,6.361057370421031
2025-03-12 00:14:51.800,198.0,0.7132444444444445,0.35514444444444443,0.6109444444444444,0.7388888888888889,-2.0766666666666667,-1.6955555555555555,-0.9499299999999999,-0.33744999999999997,0.03905,-0.406,-3.1710000000000003,0.511,0.42,1.0040409992366588,2.7809009109537164,1.0088431046996356,3.237467837678083,2.0128841039362944,6.018368748631799
2025-03-12 00:14:51.900,198.76666666666668,0.71861,0.36195999999999995,0.6075,0.595,-2.506,-0.9099999999999999,-0.94895,-0.33987,0.039180000000000006,-0.44800000000000006,-3.1990000000000003,0.546,0.46,1.0082021740206673,2.731695627261573,1.008738217675924,3.276037392948988,2.0169403916965916,6.007733020210561
2025-03-12 00:14:52.000,198.03225806451613,0.71512,0.3545,0.60434,0.364,-2.0300000000000002,-1.6169999999999998,-0.9502222222222222,-0.3368888888888889,0.03974444444444444,-0.42000000000000004,-3.118888888888889,0.49,0.46,1.0011461931206649,2.6207031499198834,1.0089578861012614,3.184959638870572,2.010104079221926,5.805662788790455
2025-03-12 00:14:52.100,197.75862068965517,0.7171,0.3593888888888889,0.6057777777777777,0.3344444444444445,-1.913333333333333,-1.0422222222222224,-0.9494777777777776,-0.3389777777777778,0.040244444444444444,-0.6066666666666667,-3.2977777777777777,0.38111111111111107,0.5,1.0051664038885166,2.2042968700603884,1.0089765109404825,3.374704193712647,2.014142914828999,5.579001063773036
2025-03-12 00:14:52.200,197.65625,0.71754,0.36267,0.60912,0.791,-2.366,-0.875,-0.9503818181818182,-0.33916363636363633,0.038818181818181814,-0.4518181818181818,-3.3154545454545454,0.4709090909090909,0.47,1.0086725707086517,2.64372124097833,1.0098338595044498,3.379072932669184,2.0185064302131015,6.0227941736475135
2025-03-12 00:14:52.300,198.11111111111111,0.7150333333333333,0.3624222222222222,0.6054888888888889,0.7388888888888889,-2.768888888888889,-0.38111111111111107,-0.9493222222222221,-0.33807777777777775,0.040377777777777776,-0.3733333333333333,-3.0955555555555554,0.4822222222222222,0.41,1.0046090431138734,2.891011613284898,1.0085334056789443,3.1550562985331303,2.013142448792818,6.046067911818028
2025-03-12 00:14:52.400,197.8125,0.71078,0.35613,0.59902,0.46900000000000003,-1.7080000000000002,-0.826,-0.95039,-0.33673000000000003,0.03678,-0.5599999999999999,-3.29,0.413,0.345,0.9954203864197276,1.954354369094817,1.0089504514097807,3.362776977439925,2.004370837829508,5.317131346534742
2025-03-12 00:14:52.500,197.79310344827587,0.7164777777777778,0.3586222222222222,0.6089777777777778,-0.07,-0.7466666666666666,-1.2444444444444445,-0.9492555555555556,-0.33888888888888885,0.04005555555555555,-0.56,-3.3833333333333333,0.38111111111111107,0.28,1.0063817556713497,1.4529463467106256,1.0087300115969071,3.4504767965393985,2.015111767268257,4.903423143250024
2025-03-12 00:14:52.600,197.6451612903226,0.71922,0.36269,0.60439,0.364,-1.7570000000000001,0.196,-0.9500299999999999,-0.33769,0.039,-0.5599999999999999,-3.2689999999999997,0.371,0.28,1.0070296503082716,1.8049822713810795,1.009015627728332,3.3373046010216085,2.0160452780366036,5.142286872402688
2025-03-12 00:14:52.700,197.46666666666667,0.71341,0.35365,0.60527,0.742,-0.819,-0.27999999999999997,-0.94955,-0.33866,0.03861,-0.441,-3.192,0.44799999999999995,0.21,1.0001869442759188,1.140054823243163,1.0088738921193272,3.253313541606465,2.0090608363952462,4.3933683648496284
2025-03-12 00:14:52.800,197.06451612903226,0.71711,0.35678,0.61399,0.33599999999999997,-1.204,-0.833,-0.9499666666666666,-0.33724444444444446,0.040177777777777784,-0.5755555555555555,-3.4144444444444444,0.30333333333333334,0.18,1.0092187278286109,1.5021321513102632,1.008853179066994,3.475874878766424,2.018071906895605,4.978007030076688
2025-03-12 00:14:52.900,196.55172413793105,0.7144222222222223,0.3570555555555555,0.6095111111111111,2.3333333333333335,-2.037777777777778,-1.1744444444444444,-0.95008,-0.33940000000000003,0.03919,-0.476,-3.1710000000000003,0.49000000000000005,0.13,1.0046848142208211,3.3130503269850586,1.0096436116273901,3.243750452793803,2.0143284258482113,6.556800779778861
2025-03-12 00:14:53.000,197.06451612903226,0.71549,0.35717,0.60597,0.5109999999999999,-1.596,-0.658,-0.9501222222222222,-0.33790000000000003,0.03868888888888889,-0.4977777777777778,-3.1033333333333335,0.4744444444444444,0.13,1.0033424091007017,1.800361352617857,1.0091607787087005,3.178609448279445,2.0125031878094024,4.978970800897302
2025-03-12 00:14:53.100,196.3793103448276,0.7163888888888889,0.3583,0.613,0.5833333333333334,-1.61,-0.6844444444444444,-0.94946,-0.33755,0.03856,-0.595,-3.3880000000000003,0.343,0.08,1.0086431133574734,1.844137189936975,1.0084151762543045,3.4569087346934695,2.0170582896117777,5.301045924630444
2025-03-12 00:14:53.200,196.0,0.71218,0.35438000000000003,0.60868,0.40599999999999997,-1.932,-0.938,-0.94886,-0.34023000000000003,0.0407,-0.5740000000000001,-3.3600000000000003,0.399,0.08,1.0016370995525274,2.185704463096509,1.0088350918262112,3.431949446014612,2.0104721913787387,5.617653909111121
2025-03-12 00:14:53.300,195.58620689655172,0.7167399999999999,0.36083,0.60954,0.665,-1.7570000000000001,-0.40599999999999997,-0.9507777777777778,-0.33557777777777775,0.03758888888888889,-0.5366666666666666,-3.2355555555555555,0.42000000000000004,0.11,1.007697141059753,1.9220067637758198,1.0089617198993341,3.3065436431714508,2.016658860959087,5.228550406947271
2025-03-12 00:14:53.400,195.93548387096774,0.7131333333333333,0.3530888888888889,0.6113,0.5911111111111111,-1.6644444444444444,-0.3111111111111111,-0.94948,-0.33930000000000005,0.03898,-0.609,-3.304,0.371,0.11,1.003453339507075,1.7934820260537259,1.0090372643267445,3.380079584861871,2.0124906038338195,5.173561610915597
2025-03-12 00:14:53.500,195.68965517241378,0.71351,0.35408999999999996,0.60786,0.364,-1.449,-1.428,-0.94985,-0.33744999999999997,0.03934,-0.45499999999999996,-3.2270000000000003,0.42699999999999994,0.18,1.001983047660987,2.06670776840849,1.0087790444889306,3.2867739502436124,2.0107620921499176,5.353481718652102
2025-03-12 00:14:53.600,195.34375,0.7163222222222223,0.357,0.6172111111111112,0.40444444444444444,-2.0611111111111113,-0.6377777777777778,-0.9485555555555555,-0.34025555555555553,0.03908888888888889,-0.56,-3.3133333333333335,0.49,0.22,1.0107007874382978,2.1951115722930385,1.0084936421694963,3.3958618608208693,2.0191944296077944,5.590973433113907
2025-03-12 00:14:53.700,195.0,0.71506,0.35829,0.6059,0.504,-2.1420000000000003,-0.966,-0.9502200000000001,-0.33779,0.03887,-0.497,-3.346,0.434,0.22,1.0033929129209556,2.403192876154555,1.0092229730837483,3.410437068764061,2.0126158860047036,5.813629944918616
2025-03-12 00:14:53.800,195.1290322580645,0.71453,0.35639,0.61059,0.8470000000000001,-1.638,-0.44800000000000006,-0.9500555555555555,-0.3385666666666667,0.03975555555555556,-0.5211111111111111,-3.29,0.43555555555555553,0.28,1.0051801336576445,1.8976714678784627,1.009362893422026,3.3593697968664844,2.0145430270796707,5.257041264744947
2025-03-12 00:14:53.900,194.93103448275863,0.7132222222222222,0.3546888888888889,0.6135666666666667,0.6766666666666666,-1.9522222222222223,-0.6922222222222223,-0.94931,-0.3383,0.0391,-0.616,-3.3950000000000005,0.413,0.28,1.0054621825893224,2.1790413001258884,1.0085460703904408,3.4750611505410953,2.014008252979763,5.654102450666984
2025-03-12 00:14:54.000,195.12121212121212,0.71351,0.35531,0.6079100000000001,0.329,-1.687,-0.9800000000000001,-0.9495100000000001,-0.33834,0.04046,-0.567,-3.493,0.434,0.28,1.0024451527639804,1.9785373385407719,1.0088013715791628,3.5652340736619244,2.011246524343143,5.543771412202696
2025-03-12 00:14:54.100,194.75862068965517,0.7153555555555555,0.35902222222222224,0.6088,0.6066666666666667,-1.2911111111111113,-0.5211111111111111,-0.9498222222222223,-0.33742222222222223,0.03914444444444445,-0.5444444444444445,-3.118888888888889,0.35,0.28,1.0056182013635095,1.5187393245065033,1.0087359899435568,3.185339488079879,2.014354191307066,4.704078812586382
2025-03-12 00:14:54.200,194.23333333333332,0.71404,0.35233,0.6115,0.45499999999999996,-1.862,-0.31500000000000006,-0.9495100000000001,-0.33945,0.04032,-0.511,-3.276,0.441,0.28,1.0039530868023665,1.9424968468442878,1.0091685909698143,3.3448135971979065,2.0131216777721805,5.287310444042195
2025-03-12 00:14:54.300,195.15151515151516,0.71513,0.35522,0.6122,0.525,-1.239,-1.064,-0.950411111111111,-0.33705555555555555,0.04016666666666666,-0.63,-3.4144444444444444,0.3888888888888889,0.28,1.0061714591956978,1.7154713637948027,1.0092081493752574,3.493789551775946,2.015379608570955,5.2092609155707486
2025-03-12 00:14:54.400,194.42857142857142,0.7150333333333333,0.36017777777777776,0.6094555555555555,0.77,-1.8433333333333333,-0.07777777777777778,-0.94959,-0.33874,0.03948,-0.602,-3.346,0.476,0.25,1.0061991719238528,1.9992066327655647,1.0089720640830449,3.4328845014069436,2.0151712360068976,5.432091134172508
2025-03-12 00:14:54.500,194.96875,0.71639,0.35209,0.6139699999999999,1.057,-1.582,-1.9740000000000002,-0.9493,-0.33818000000000004,0.03816,-0.5389999999999999,-3.213,0.39899999999999997,0.25,1.0070457591887272,2.7416507800958168,1.0084604047755172,3.2822387177047316,2.015506163964244,6.023889497800548
2025-03-12 00:14:54.600,194.96428571428572,0.72609,0.36791,0.62737,1.939,-2.982,-0.9029999999999999,-0.9492222222222222,-0.3381777777777778,0.04602222222222222,-0.6222222222222222,-3.3833333333333333,0.3188888888888889,0.25,1.0276952724908295,3.669802991987445,1.0087145688853123,3.4548220014536772,2.036409841376142,7.124624993441122
2025-03-12 00:14:54.700,195.67741935483872,0.6973666666666667,0.3481222222222222,0.5769666666666667,0.44333333333333336,-3.9822222222222226,1.2755555555555556,-0.9493500000000001,-0.3392,0.03255,-1.9950000000000003,-3.0940000000000003,0.623,0.25,0.9697421738932264,4.204959006567553,1.008653342333232,3.733763516882129,1.9783955162264584,7.938722523449682
2025-03-12 00:14:54.800,195.93333333333334,0.7657700000000001,0.37351999999999996,0.5803200000000001,4.886,-1.61,2.121,-0.9491666666666667,-0.34213333333333334,0.04685555555555556,-0.63,-3.5466666666666664,0.5366666666666666,0.28,1.0308696259469479,5.564506896392528,1.0100336736838573,3.6419439253722117,2.040903299630805,9.20645082176474
2025-03-12 00:14:54.900,196.06451612903226,0.7463,0.38359,0.57526,12.754000000000001,-10.353,7.595000000000001,-0.9397500000000001,-0.35545,0.047920000000000004,1.295,-1.253,2.478,0.28,1.0173637725513918,18.0978769473107,1.0058683270687074,3.063905677399355,2.023232099620099,21.161782624710053
2025-03-12 00:14:55.000,195.76666666666668,0.6579222222222222,0.33236666666666664,0.6372333333333333,-5.561111111111112,6.6033333333333335,15.267777777777777,-0.96028,-0.32038,0.01958,0.686,-1.141,2.59,0.28,0.9743693204920039,17.539526965481123,1.0125040242882988,2.912143025333749,1.9868733447803026,20.45166999081487
2025-03-12 00:14:55.100,195.1290322580645,0.77236,0.27908999999999995,0.56477,-8.043000000000001,-2.625,2.0439999999999996,-0.9673,-0.29598,0.0062,-1.456,-5.628,-2.058,0.28,0.9966927062038731,8.703930721231645,1.011588795113904,6.16682122328838,2.008281501317777,14.870751944520025
2025-03-12 00:14:55.200,193.10714285714286,0.7585666666666666,0.3272222222222222,0.6168333333333333,-6.961111111111111,-9.714444444444444,-4.021111111111111,-0.9520222222222223,-0.33346666666666663,0.028855555555555554,-2.2244444444444444,-5.117777777777778,-2.411111111111111,0.28,1.031009763098749,12.609394645792213,1.0091476465161755,6.078919250924399,2.0401574096149244,18.68831389671661
2025-03-12 00:14:55.300,192.6060606060606,0.7358499999999999,0.31290999999999997,0.55193,-4.228,-10.43,2.45,-0.93462,-0.3727,0.03501,0.3919999999999999,-5.831,-0.14700000000000002,0.24,0.9716041454728359,11.517959194232285,1.006799649632438,5.846010092362141,1.978403795105274,17.363969286594426
2025-03-12 00:14:55.400,191.96428571428572,0.70419,0.31789,0.62059,4.5920000000000005,0.44799999999999995,-7.8469999999999995,-0.9410700000000001,-0.35274,0.04416,1.358,-2.947,0.14699999999999996,0.2,0.990994226168851,9.10288838775913,1.0059763208445813,3.2481659440367268,1.9969705470134325,12.351054331795856
2025-03-12 00:14:55.500,191.4375,0.7534333333333333,0.30743333333333334,0.5884222222222222,3.8499999999999996,1.0344444444444445,-5.172222222222222,-0.9517777777777778,-0.3026666666666667,0.05201111111111111,0.10888888888888894,-1.4855555555555555,0.6922222222222223,0.2,1.0042000566755414,6.530272431123478,1.0000965978652905,1.6425296660041497,2.004296654540832,8.172802097127628
2025-03-12 00:14:55.600,190.75,0.73731,0.3209,0.56436,5.0120000000000005,9.653,0.294,-0.95312,-0.31222,0.055830000000000005,-3.2060000000000004,-3.6049999999999995,-3.052,0.2,0.9823976057075873,10.880578523222008,1.0045078654246566,5.708692056855055,1.986905471132244,16.589270580077063
2025-03-12 00:14:55.700,190.03125,0.7136333333333333,0.3324888888888889,0.5911333333333333,1.0577777777777777,15.641111111111112,-6.572222222222222,-0.9488333333333334,-0.35396666666666665,0.04001111111111111,-1.47,-3.1500000000000004,-4.8533333333333335,0.2,0.9845100372554817,16.99874570536178,1.0134978956899228,5.969777587519023,1.9980079329454044,22.968523292880803
2025-03-12 00:14:55.800,190.44827586206895,0.7377499999999999,0.34434,0.6852,-3.7939999999999996,13.405000000000001,-6.874,-0.9389200000000001,-0.37795,0.07666,-0.798,-4.879,-3.339,0.2,1.0641165998611242,15.535132345751034,1.015033853868924,5.965766170409296,2.0791504537300485,21.50089851616033
2025-03-12 00:14:55.900,190.6451612903226,0.68559,0.33337,0.69799,-12.565,-4.06,-1.589,-0.9249666666666667,-0.40536666666666665,0.07265555555555556,3.9122222222222223,0.05444444444444447,1.4000000000000001,0.17,1.033614650196097,13.299915262887955,1.0125039746302111,4.15553208549522,2.046118624826308,17.455447348383174
2025-03-12 00:14:56.000,190.63333333333333,0.6889888888888889,0.3330888888888889,0.6049111111111112,0.10888888888888913,-0.5055555555555559,2.216666666666667,-0.94597,-0.34092,0.028339999999999997,2.331,1.141,3.493,0.17,0.9754851865914005,2.276192944587004,1.0059268576293208,4.351607863767138,1.9814120442207213,6.627800808354142
2025-03-12 00:14:56.100,191.51612903225808,0.6643600000000001,0.30402,0.6849999999999999,-11.017999999999999,6.566,5.516,-0.96359,-0.31835,0.01029,-1.8760000000000001,-2.709,0.231,0.17,1.0015125411096957,13.961910184498393,1.0148686095746582,3.303243557474986,2.016381150684354,17.26515374197338
2025-03-12 00:14:56.200,191.42857142857142,0.681088888888889,0.2783777777777778,0.6906333333333333,-9.100000000000001,-1.54,-3.2511111111111113,-0.9387,-0.3595,0.015222222222222224,-1.0033333333333334,-4.705555555555556,-1.4622222222222223,0.17,1.009133619913392,9.785260520639712,1.005300778896238,5.028620555515998,2.0144343988096303,14.81388107615571
2025-03-12 00:14:56.300,190.5151515151515,0.69014,0.31675,0.68247,-5.824,0.49000000000000005,-3.255,-0.93588,-0.36688,0.04881,0.5740000000000001,-3.4159999999999995,-0.41999999999999993,0.17,1.0209745750996937,6.689850596239052,1.0064068386591976,3.4892595202993992,2.0273814137588912,10.179110116538451
2025-03-12 00:14:56.400,189.82142857142858,0.6682888888888888,0.2814111111111111,0.6832888888888888,1.9288888888888889,-5.156666666666666,-0.3111111111111111,-0.94886,-0.35697,0.03601,-3.465,1.855,0.11199999999999999,0.17,0.9963362676065486,5.514400564000308,1.0144257491802937,3.931894454331143,2.0107620167868423,9.446295018331451
2025-03-12 00:14:56.500,189.6875,0.68652,0.26078999999999997,0.6818799999999999,-4.62,-1.7920000000000003,1.225,-0.9296000000000001,-0.3849111111111111,0.038111111111111116,1.3688888888888888,-4.075555555555556,1.1588888888888889,0.16,1.0021384479701394,5.104536119962322,1.006859066725286,4.4527557010612355,2.0089975146954253,9.557291821023558
2025-03-12 00:14:56.600,190.17241379310346,0.6601555555555555,0.28602222222222223,0.6860777777777778,-7.544444444444445,-2.8466666666666667,1.6255555555555554,-0.94825,-0.34814,0.00907,-0.16099999999999998,0.392,1.379,0.16,0.9941412305584636,8.225848524657945,1.0101790865980151,1.4426454865974523,2.0043203171564787,9.668494011255397
2025-03-12 00:14:56.700,189.58064516129033,0.6809909090909091,0.2699090909090909,0.6892363636363636,-3.939090909090909,0.7381818181818183,0.6427272727272727,-0.9445555555555555,-0.35698888888888886,0.019000000000000003,-1.151111111111111,-5.6466666666666665,-0.09333333333333334,0.16,1.0058062937656098,4.058872741770096,1.009944188715885,5.763558999930426,2.015750482481495,9.822431741700523
2025-03-12 00:14:56.800,189.15625,0.6963222222222222,0.25175555555555557,0.7046333333333333,-5.895555555555556,-2.6055555555555556,-1.7111111111111112,-0.9334,-0.38488,0.0446,3.5909999999999997,-4.193,1.7920000000000003,0.16,1.022131905068042,6.668912677213303,1.010622251090881,5.804118710019635,2.032754156158923,12.473031387232938
2025-03-12 00:14:56.900,189.0344827586207,0.6922699999999999,0.26879,0.66021,-0.7210000000000001,-3.2060000000000004,-1.4769999999999999,-0.94751,-0.34335,0.03313,2.534,-1.834,3.724,0.16,0.9936614418905465,3.602749783151753,1.0083461803864782,4.863423485570633,2.0020076222770244,8.466173268722386
2025-03-12 00:14:57.000,188.03225806451613,0.6829444444444444,0.2388,0.7104222222222222,-6.035555555555556,1.3299999999999998,1.0811111111111111,-0.9528444444444444,-0.32978888888888885,0.026944444444444444,2.022222222222222,-0.5055555555555555,2.3644444444444446,0.2,1.013971542019149,6.2742037023645825,1.0086621087508094,3.1520733917005592,2.0226336507699587,9.426277094065142
2025-03-12 00:14:57.100,188.6,0.6792,0.25342000000000003,0.68483,-2.072,-1.267,0.14699999999999996,-0.9570700000000001,-0.32530000000000003,0.013370000000000002,-1.9809999999999999,-3.4090000000000003,-1.113,0.2,0.9972594774179888,2.433121862957135,1.010931170654066,4.096878201753135,2.0081906480720546,6.53000006471027
2025-03-12 00:14:57.200,187.83870967741936,0.6957099999999999,0.23288000000000003,0.70233,-3.8850000000000002,-2.471,-0.7070000000000001,-0.9421666666666666,-0.36182222222222227,0.027811111111111113,-1.6722222222222223,-5.623333333333333,-2.395555555555555,0.2,1.0156342488317336,4.658209419938095,1.0096369675149772,6.336946532678391,2.025271216346711,10.995155952616486
2025-03-12 00:14:57.300,187.68965517241378,0.6754333333333333,0.2319,0.7115111111111111,-0.10888888888888887,-2.4266666666666667,-1.438888888888889,-0.9349111111111112,-0.37787777777777776,0.0357,-1.2335811384723961e-17,-3.8499999999999996,0.05444444444444444,0.2,1.0080852439215375,2.8232904802379917,1.009021749328172,3.8503849414741462,2.017106993249709,6.673675421712138
2025-03-12 00:14:57.400,187.53125,0.67706,0.2234,0.69731,0.917,-2.5829999999999997,-1.113,-0.9417454545454546,-0.3589090909090909,0.029936363636363636,0.38181818181818183,-1.4954545454545454,2.481818181818182,0.2,0.9972758092423579,2.958301370719352,1.0082640639048797,2.922600025506554,2.005539873147238,5.880901396225906
2025-03-12 00:14:57.500,187.0,0.686088888888889,0.24555555555555555,0.6953555555555556,2.2944444444444443,-1.641111111111111,-0.7077777777777778,-0.9527444444444444,-0.3323222222222222,0.014366666666666666,-0.3655555555555556,-3.111111111111111,1.2833333333333332,0.17,1.007241203964057,2.9083793374266653,1.00914143553497,3.385201272350137,2.016382639499027,6.293580609776802
2025-03-12 00:14:57.600,187.0,0.67978,0.23717000000000002,0.70085,1.561,-1.351,-1.33,-0.94238,-0.35736,0.028100000000000003,-0.791,-3.5490000000000004,0.301,0.17,1.0047592646002326,2.455773197996916,1.008253858906575,3.648517918278599,2.0130131235068074,6.104291116275515
2025-03-12 00:14:57.700,186.82142857142858,0.68545,0.23806,0.69741,0.44800000000000006,-0.966,-0.77,-0.94604,-0.3498,0.03085,0.0,-2.625,1.141,0.17,1.0064268349959673,1.3140624033888193,1.009110223959702,2.862255404397029,2.0155370589556694,4.176317807785848
2025-03-12 00:14:57.800,187.125,0.685,0.24295555555555554,0.6963666666666667,1.6488888888888888,-2.138888888888889,-1.508888888888889,-0.949811111111111,-0.3393333333333334,0.023955555555555556,-0.06222222222222223,-3.0877777777777777,0.9333333333333333,0.17,1.0065678995575773,3.093610500034858,1.008891533586842,3.226353099241875,2.0154594331444193,6.319963599276733
2025-03-12 00:14:57.900,187.1,0.67763,0.23214,0.69371,-0.952,-1.764,-0.5740000000000001,-0.9473900000000001,-0.34618,0.02376,-0.861,-3.696,0.028000000000000004,0.17,0.9971484145301541,2.085060190977709,1.0089365401748518,3.79506534858097,2.006084954705006,5.880125539558679
2025-03-12 00:14:58.000,186.66666666666666,0.684711111111111,0.2396111111111111,0.7022777777777778,-0.4511111111111112,-1.4544444444444444,-1.0655555555555556,-0.9444555555555555,-0.35217777777777776,0.0289,-0.8711111111111111,-3.538888888888889,0.054444444444444455,0.17,1.0096716631694718,1.85857970464506,1.008395107872032,3.6449325553888285,2.0180667710415037,5.503512260033888
2025-03-12 00:14:58.100,186.3,0.68194,0.23391,0.7056,1.6170000000000002,-1.9880000000000002,-0.6439999999999999,-0.94521,-0.34874,0.02497,-0.539,-3.5140000000000002,0.483,0.17,1.0087752037495767,2.642265883668788,1.007802080073265,3.5877577956155293,2.0165772838228415,6.230023679284317
2025-03-12 00:14:58.200,186.625,0.68228,0.24176000000000003,0.6936,-0.041999999999999996,-0.9800000000000001,-0.707,-0.9457444444444444,-0.34873333333333334,0.027833333333333335,-0.4666666666666667,-3.048888888888889,0.6844444444444444,0.17,1.0025142672301477,1.2091372957609074,1.0083760144012515,3.1594248578022497,2.010890281631399,4.368562153563158
2025-03-12 00:14:58.300,186.5,0.6820111111111111,0.23234444444444444,0.7071000000000001,0.6066666666666667,-1.6333333333333333,-1.0499999999999998,-0.94686,-0.34639,0.0264,-0.826,-3.4159999999999995,0.378,0.17,1.0095115187768835,2.0342866617618625,1.0085766464181094,3.5347158301623054,2.018088165194993,5.569002491924168
2025-03-12 00:14:58.400,186.34375,0.6805,0.23793999999999998,0.6949099999999999,-0.24499999999999997,-1.267,-0.889,-0.94526,-0.34974,0.02894,-0.742,-3.4299999999999997,0.273,0.17,1.0012969597976416,1.5670465851403397,1.0083015713565064,3.519942187025235,2.0095985311541478,5.086988772165575
2025-03-12 00:14:58.500,186.21428571428572,0.6774444444444444,0.23055555555555557,0.7074333333333334,0.5833333333333334,-1.641111111111111,-0.3111111111111111,-0.9448666666666666,-0.3494,0.026733333333333335,-0.5133333333333333,-3.212222222222222,0.5288888888888889,0.17,1.0062548189287264,1.7692692220933797,1.007753962477394,3.29569509706822,2.0140087814061203,5.0649643191616
2025-03-12 00:14:58.600,186.03125,0.6832900000000001,0.23478,0.70263,0.798,-2.191,-0.567,-0.94716,-0.34371999999999997,0.0262,-0.805,-3.507,-1.624,0.19,1.00781733930311,2.3997445697407045,1.007939454530876,3.9477145286861868,2.0157567938339858,6.347459098426891
2025-03-12 00:14:58.700,186.10344827586206,0.67933,0.24121,0.70329,0.04900000000000003,-2.184,-0.826,-0.94486,-0.352,0.02547,-0.511,-3.213,0.217,0.19,1.0071188296819795,2.335494166124163,1.008619423023372,3.2606102189620887,2.0157382527053516,5.596104385086251
2025-03-12 00:14:58.800,186.16129032258064,0.6796777777777777,0.2355,0.6957888888888889,0.10888888888888888,-1.913333333333333,-1.267777777777778,-0.9446666666666668,-0.35107777777777777,0.0271,-0.5288888888888889,-3.468888888888889,0.49,0.19,1.0007718568715713,2.2978167308110238,1.0081592766822582,3.54302322603831,2.00893113355383,5.840839956849334
2025-03-12 00:14:58.900,186.2,0.68398,0.23292000000000002,0.70857,0.273,-1.218,-0.812,-0.9461299999999999,-0.34482,0.02776,-0.6439999999999999,-3.374,0.266,0.19,1.0120038595282135,1.4890926767666277,1.0073894117470166,3.445194914660127,2.01939327127523,4.934287591426755
2025-03-12 00:14:59.000,185.6451612903226,0.67692,0.23323999999999998,0.70184,0.553,-1.645,-0.7769999999999999,-0.945088888888889,-0.35207777777777777,0.027211111111111113,-0.6922222222222223,-3.3133333333333335,0.3966666666666667,0.19,1.0025971123038406,1.9014633838178425,1.008906444658807,3.4080337186067413,2.011503556962648,5.309497102424584
2025-03-12 00:14:59.100,185.86206896551724,0.6801333333333334,0.2352777777777778,0.6969,1.5244444444444445,-2.3644444444444446,-1.501111111111111,-0.9451600000000001,-0.34950000000000003,0.02641,-0.21000000000000002,-3.101,0.742,0.19,1.0018016738991609,3.188708666994049,1.0080551392161048,3.1954444135362454,2.009856813115266,6.384153080530295
2025-03-12 00:14:59.200,186.09375,0.68211,0.23258,0.7034,1.358,-2.163,-0.749,-0.9461700000000001,-0.34772,0.02954,-0.616,-3.304,0.44800000000000006,0.18,1.0070447202085913,2.661528508207267,1.0084738364975068,3.390660112721415,2.0155185567060983,6.052188620928682
2025-03-12 00:14:59.300,186.23333333333332,0.6786888888888889,0.24015555555555557,0.7010444444444445,-0.2644444444444445,-1.431111111111111,-0.3888888888888889,-0.9465555555555556,-0.3473888888888889,0.024555555555555556,-0.42,-2.9244444444444446,0.56,0.18,1.0048664646866527,1.5064011565464372,1.0085878420768244,3.0070542576817556,2.013454306763477,4.513455414228193
2025-03-12 00:14:59.400,185.93333333333334,0.6771499999999999,0.23712,0.7024900000000001,0.945,-2.149,-1.155,-0.9462400000000001,-0.34642999999999996,0.023880000000000002,-0.44799999999999995,-3.22,0.42699999999999994,0.18,1.0041166351574902,2.6163430585456484,1.0079455029415032,3.278937785320118,2.0120621380989934,5.895280843865766
2025-03-12 00:14:59.500,186.21875,0.6848099999999999,0.23581,0.69974,0.28700000000000003,-1.638,-0.686,-0.947,-0.3479888888888889,0.028466666666666664,-0.7,-3.445555555555556,0.14777777777777779,0.13,1.0070785271268572,1.7988910472844095,1.0093144296507577,3.519046938877726,2.016392956777615,5.317937986162136
2025-03-12 00:14:59.600,185.82142857142858,0.6801777777777778,0.2353888888888889,0.7027111111111111,0.3888888888888889,-1.68,-0.6533333333333333,-0.9447800000000001,-0.35365,0.02777,-0.532,-3.003,0.511,0.1,1.005908864696039,1.8440387773432745,1.0091822153605363,3.0922732738229977,2.0150910800565756,4.936312051166272
2025-03-12 00:14:59.700,185.375,0.67762,0.23828999999999997,0.7,0.833,-2.254,-0.959,-0.9477500000000001,-0.34482,0.02445,-0.364,-3.248,0.511,0.06,1.0029710805900636,2.587293180140202,1.0088254048149263,3.3080388449956266,2.01179648540499,5.895332025135829
2025-03-12 00:14:59.800,184.79310344827587,0.68223,0.23502,0.70503,0.07699999999999999,-1.841,-0.875,-0.9458,-0.3484333333333333,0.02722222222222222,-0.7,-3.6166666666666663,0.23333333333333334,0.03,1.0088307460619943,2.03981249138248,1.0083077293963851,3.691168137896487,2.0171384754583794,5.730980629278967
2025-03-12 00:14:59.900,185.0,0.6793,0.23494444444444446,0.7016444444444444,0.1011111111111111,-1.6488888888888888,-0.5522222222222222,-0.9457799999999998,-0.35062,0.02581,-0.434,-3.157,0.462,-0.01,1.0044661808120081,1.741840235902078,1.0090095881110346,3.220007608686663,2.0134757689230427,4.961847844588741
2025-03-12 00:15:00.000,184.75862068965517,0.67998,0.23571,0.70028,-0.020999999999999974,-1.6030000000000002,-0.532,-0.9461777777777777,-0.34657777777777776,0.026577777777777777,-0.4433333333333333,-3.29,0.4822222222222222,-0.04,1.0041534160176921,1.6891044964714292,1.0080054173869708,3.354576383993869,2.012158833404663,5.043680880465298
2025-03-12 00:15:00.100,184.6875,0.6833400000000001,0.23373,0.70111,0.469,-1.827,-0.833,-0.9456,-0.34880999999999995,0.02812,-0.462,-3.15,0.462,-0.04,1.0065478133700356,2.0619842385430593,1.0082750172943886,3.2170464715325453,2.014822830664424,5.279030710075604
2025-03-12 00:15:00.200,183.83333333333334,0.6757555555555556,0.2317888888888889,0.7039111111111112,1.0655555555555556,-2.2555555555555555,-1.221111111111111,-0.94583,-0.34892,0.02566,-0.476,-3.178,0.49700000000000005,-0.04,1.0029269725270242,2.777418198948774,1.0084631827191313,3.251656347156015,2.0113901552461555,6.029074546104789
2025-03-12 00:15:00.300,183.83333333333334,0.6792499999999999,0.23428,0.7014,0.791,-1.778,-0.504,-0.9460666666666666,-0.3486,0.026944444444444444,-0.5288888888888889,-3.352222222222222,0.49,-0.08,1.0041063892337305,2.010219142282751,1.0086080015864427,3.428879887652908,2.0127143908201734,5.439099029935659
2025-03-12 00:15:00.400,184.31034482758622,0.6804333333333333,0.23532222222222224,0.7033666666666667,0.8322222222222222,-1.6955555555555555,-0.8555555555555556,-0.9469,-0.34614,0.02465,-0.504,-3.1710000000000003,0.40599999999999997,-0.12,1.00652408672644,2.073518212550297,1.008484076274881,3.2363703434557674,2.015008163001321,5.309888556006064
2025-03-12 00:15:00.500,183.0909090909091,0.68589,0.23696,0.7010099999999999,0.35700000000000004,-1.7570000000000001,-0.959,-0.94554,-0.34748999999999997,0.02743,-0.497,-3.157,0.44799999999999995,-0.12,1.008964892253442,2.033268059061569,1.007743814964895,3.227129064664133,2.0167087072183367,5.260397123725702
2025-03-12 00:15:00.600,182.4814814814815,0.6762111111111111,0.23364444444444443,0.6992888888888888,0.8788888888888889,-1.8822222222222225,-0.8477777777777777,-0.9466666666666667,-0.3471333333333333,0.024666666666666667,-0.40444444444444444,-3.1888888888888887,0.49,-0.16,1.0004279800831908,2.243642871165849,1.008606847752549,3.2515669536887883,2.0090348278357397,5.495209824854637
2025-03-12 00:15:00.700,182.8125,0.68012,0.23481999999999997,0.70537,0.595,-1.6940000000000002,-0.686,-0.94657,-0.34632999999999997,0.02655,-0.63,-3.2479999999999998,0.336,-0.16,1.007596389284916,1.9220450046760094,1.0082877249575144,3.3255525856615167,2.0158841142424304,5.247597590337526
2025-03-12 00:15:00.800,182.82758620689654,0.6766300000000001,0.23224999999999998,0.6954,0.378,-1.862,-0.7629999999999999,-0.94565,-0.34995,0.02769,-0.637,-3.283,0.273,-0.16,0.9976719798611166,2.047461110741789,1.0087049425377077,3.3553519934576164,2.0063769223988244,5.402813104199405
2025-03-12 00:15:00.900,182.61290322580646,0.6803222222222222,0.24243333333333336,0.7047777777777777,-0.7311111111111112,-1.1666666666666667,-0.4044444444444445,-0.9457444444444444,-0.34828888888888887,0.02571111111111111,-0.27222222222222225,-3.1888888888888887,0.5988888888888888,-0.16,1.0091203908403974,1.4349947304931856,1.0081660406676844,3.2560382653134137,2.017286431508082,4.6910329958066
2025-03-12 00:15:01.000,181.86206896551724,0.68129,0.23437000000000002,0.7009299999999999,0.39899999999999997,-1.9809999999999999,-1.057,-0.94711,-0.34487,0.02597,-0.42000000000000004,-3.4159999999999995,0.476,-0.16,1.0051806931591951,2.280528666778824,1.0082792816972885,3.474482983121373,2.0134599748564836,5.755011649900197
2025-03-12 00:15:01.100,181.84375,0.67677,0.23229000000000002,0.70482,0.637,-2.114,-0.728,-0.9473666666666666,-0.34659999999999996,0.025144444444444445,-0.6922222222222223,-3.3600000000000003,0.3111111111111111,-0.15,1.0043642314419605,2.324811605270414,1.0090923665341696,3.444642467426055,2.01345659797613,5.769454072696469
2025-03-12 00:15:01.200,181.6206896551724,0.6781555555555556,0.23717777777777777,0.7040222222222222,0.8788888888888889,-2.0455555555555556,-0.98,-0.94536,-0.35053,0.025869999999999997,-0.504,-3.276,0.406,-0.15,1.0058804825550525,2.432517874523545,1.0085861725207221,3.339315498721257,2.0144666550757746,5.771833373244802
2025-03-12 00:15:01.300,181.3125,0.67933,0.23252,0.70285,0.45499999999999996,-1.7920000000000003,-0.693,-0.94686,-0.34726999999999997,0.026989999999999997,-0.518,-3.29,0.518,-0.15,1.0047651077739514,1.9744715748776938,1.008894827323443,3.370570871529035,2.0136599350973947,5.345042446406729
2025-03-12 00:15:01.400,181.46428571428572,0.6804222222222223,0.2379111111111111,0.6993555555555555,0.7855555555555556,-2.0455555555555556,-1.1044444444444443,-0.9457666666666668,-0.3480444444444444,0.024944444444444446,-0.4822222222222222,-3.22,0.39666666666666667,-0.15,1.004327780343833,2.4538118494686167,1.008083205095225,3.2799821213002645,2.0124109854390584,5.733793970768881
2025-03-12 00:15:01.500,181.3030303030303,0.67554,0.23052,0.70514,0.749,-1.8690000000000002,-0.966,-0.94725,-0.34814,0.02626,-0.497,-3.2060000000000004,0.39899999999999997,-0.15,1.0033524712681978,2.233230395637674,1.0095412867733542,3.268737676841016,2.0128937580415522,5.5019680724786895
2025-03-12 00:15:01.600,181.32142857142858,0.6825555555555556,0.24134444444444444,0.7058777777777778,-2.037777777777778,-1.3766666666666667,-0.6766666666666666,-0.94574,-0.34665999999999997,0.027000000000000003,-0.462,-3.2060000000000004,0.40599999999999997,-0.15,1.0111343453984958,2.5506130950212396,1.0076340125263736,3.2644625897687973,2.0187683579248694,5.8150756847900364
2025-03-12 00:15:01.700,181.38709677419354,0.6794800000000001,0.23279,0.6968,0.497,-2.1350000000000002,-1.022,-0.9472111111111112,-0.34654444444444443,0.02428888888888889,-0.8555555555555556,-3.3133333333333335,0.18666666666666668,-0.16,1.0007069973273897,2.418619027461746,1.0089062846028423,3.427097537401613,2.009613281930232,5.845716564863359
2025-03-12 00:15:01.800,181.46666666666667,0.6740999999999999,0.23392222222222225,0.7093,-0.5988888888888889,-1.2133333333333334,-0.4122222222222222,-0.9440900000000001,-0.34974,0.02792,-0.7140000000000001,-3.1710000000000003,0.462,-0.16,1.0060998489461088,1.4144867760096498,1.0071760134653724,3.2830597009497104,2.013275862411481,4.69754647695936
2025-03-12 00:15:01.900,181.09677419354838,0.6829272727272727,0.23043636363636366,0.7024181818181817,0.01909090909090909,-1.7627272727272727,-0.6936363636363636,-0.9476999999999999,-0.3478444444444444,0.02531111111111111,-0.43555555555555553,-3.6399999999999997,0.29555555555555557,-0.16,1.0064203295191434,1.8943873167293757,1.0098374621079091,3.677861026248145,2.0162577916270523,5.57224834297752
2025-03-12 00:15:02.000,181.15625,0.6756555555555556,0.23353333333333332,0.7036333333333333,-0.6144444444444445,-1.5633333333333335,-0.6377777777777778,-0.94583,-0.34779,0.02498,-0.546,-3.178,0.35,-0.16,1.0030693472081789,1.7967508397791037,1.008055689632274,3.2435011946968664,2.011125036840453,5.04025203447597
2025-03-12 00:15:02.100,180.60714285714286,0.67896,0.22849,0.70469,0.406,-1.967,-0.9380000000000001,-0.9458555555555557,-0.35005555555555556,0.02652222222222222,-0.63,-3.22,0.2411111111111111,-0.16,1.004879275236583,2.216702280415663,1.0089028953384078,3.289898868947378,2.0137821705749905,5.506601149363041
2025-03-12 00:15:02.200,180.84375,0.6783222222222222,0.2305333333333333,0.7106444444444445,0.8400000000000001,-1.641111111111111,-0.7233333333333333,-0.94604,-0.34858,0.026590000000000003,-0.546,-3.073,0.46900000000000003,-0.21,1.009099688513491,1.98041833715088,1.0085666691399235,3.1561695138252635,2.0176663576534146,5.136587850976143
2025-03-12 00:15:02.300,180.68965517241378,0.67622,0.22936,0.7044699999999999,0.8960000000000001,-1.834,-0.8400000000000001,-0.9470599999999999,-0.34857,0.026019999999999998,-0.581,-3.367,0.413,-0.21,1.003074014666914,2.207254403099018,1.0095051901302934,3.4416302822935525,2.0125792047972073,5.64888468539257
2025-03-12 00:15:02.400,180.80645161290323,0.6796300000000001,0.23142000000000001,0.7058899999999999,0.434,-1.575,-0.665,-0.94628,-0.34848,0.02571,-0.371,-3.136,0.511,-0.21,1.0068430093117795,1.7638611056429585,1.00873443130489,3.198946389047494,2.0155774406166698,4.962807494690453
2025-03-12 00:15:02.500,181.63333333333333,0.678,0.2344,0.7015222222222222,-0.4977777777777777,-1.54,-0.7544444444444445,-0.9475,-0.3459375,0.0258625,-0.42875,-3.14125,0.37625,-0.21,1.0033746998363098,1.7856564999468596,1.009008361121205,3.1926230888565597,2.012383060957515,4.978279588803419
2025-03-12 00:15:02.600,180.59375,0.67818,0.23199,0.70598,1.3719999999999999,-2.492,-1.4979999999999998,-0.9460363636363636,-0.3479363636363636,0.02497272727272727,-0.6872727272727274,-3.3663636363636367,0.2290909090909091,-0.21,1.0060592591393411,3.2150353030721135,1.008299633824315,3.443432964138027,2.0143588929636564,6.65846826721014
2025-03-12 00:15:02.700,181.03703703703704,0.6722555555555556,0.22573333333333334,0.7075555555555556,0.1711111111111111,-1.3455555555555554,-0.6066666666666667,-0.9449888888888888,-0.3504,0.026233333333333334,-0.4588888888888889,-3.328888888888889,0.5288888888888889,-0.18,1.0017574227080213,1.4858812906408583,1.0082025331753706,3.4017353958977616,2.009959955883392,4.88761668653862
2025-03-12 00:15:02.800,181.0909090909091,0.67851,0.23353000000000002,0.7034,0.8119999999999999,-2.107,-0.791,-0.9458400000000001,-0.34858,0.02666,-0.35,-3.2340000000000004,0.595,-0.18,1.0048301552998895,2.3925873024823985,1.0083809188992026,3.3068536405471596,2.0132110741990923,5.699440943029558
2025-03-12 00:15:02.900,181.39285714285714,0.6812,0.22821111111111111,0.7034222222222222,0.3655555555555556,-1.897777777777778,-0.98,-0.9465199999999999,-0.34628,0.02617,-0.5740000000000001,-3.276,0.343,-0.18,1.0054434712854907,2.166931322867592,1.0082136766082872,3.3435461713575902,2.013657147893778,5.510477494225182
2025-03-12 00:15:03.000,181.0625,0.67604,0.23125,0.70636,0.399,-1.6940000000000002,-0.5810000000000001,-0.9461777777777779,-0.3489777777777778,0.024955555555555554,-0.49,-3.0411111111111113,0.35777777777777775,-0.18,1.0047144339064709,1.8347746455627734,1.00879168131795,3.1010420391208924,2.0135061152244207,4.935816684683665
2025-03-12 00:15:03.100,179.96428571428572,0.6796300000000001,0.23137,0.70563,0.686,-1.645,-0.833,-0.9457000000000001,-0.34882,0.02656,-0.553,-3.304,0.525,-0.18,1.006649249093248,1.9673611768051131,1.0083299638511196,3.3908479765392014,2.0149792129443673,5.358209153344315
2025-03-12 00:15:03.200,180.0,0.6768,0.2335111111111111,0.7047222222222222,0.7777777777777778,-2.0688888888888886,-0.8166666666666667,-0.9468666666666667,-0.3470333333333333,0.026688888888888887,-0.4511111111111111,-3.352222222222222,0.42,-0.19,1.004598969492888,2.356307269992028,1.008811635380467,3.408415329992575,2.0134106048733553,5.764722599984603
2025-03-12 00:15:03.300,179.13793103448276,0.67569,0.22976999999999997,0.70472,0.24499999999999997,-1.666,-0.5740000000000001,-0.94662,-0.34736,0.025619999999999997,-0.588,-3.199,0.39899999999999997,-0.19,1.002986294721917,1.7790607072272717,1.0086648493925026,3.2769720780012754,2.0116511441144196,5.056032785228547
2025-03-12 00:15:03.400,179.5,0.6789,0.23179,0.70755,0.24500000000000002,-1.7080000000000002,-1.0150000000000001,-0.94629,-0.34758999999999995,0.02631,-0.511,-3.3600000000000003,0.175,-0.19,1.0076005243150679,2.0018776186370637,1.0084521745229171,3.4031376698570397,2.016052698837985,5.405015288494104
2025-03-12 00:15:03.500,180.1,0.6758111111111111,0.22920000000000001,0.7056555555555556,0.7388888888888889,-1.5322222222222222,-0.9411111111111112,-0.9452666666666667,-0.3496222222222222,0.02422222222222222,-0.5522222222222222,-3.1577777777777776,0.3422222222222222,-0.19,1.0035950682360164,1.9440555166588869,1.008142591815314,3.223914689616635,2.01173766005133,5.1679702062755215
2025-03-12 00:15:03.600,179.83333333333334,0.67553,0.22818,0.7081500000000001,0.26599999999999996,-1.323,-0.27999999999999997,-0.9448700000000001,-0.34961,0.026889999999999997,-0.644,-3.472,0.462,-0.19,1.00492950787605,1.3782180524140584,1.0078340841130549,3.561314925698091,2.012763591989105,4.939532978112149
2025-03-12 00:15:03.700,180.06896551724137,0.681888888888889,0.23035555555555554,0.7060444444444445,0.35777777777777775,-1.6722222222222223,-0.8477777777777777,-0.9469888888888889,-0.34729999999999994,0.027755555555555554,-0.3811111111111111,-3.336666666666667,0.5055555555555555,-0.19,1.0082335524551325,1.9086799782203563,1.009046885205643,3.3962003096416264,2.0172804376607756,5.304880287861983
2025-03-12 00:15:03.800,180.42424242424244,0.67304,0.22852999999999998,0.70277,0.511,-2.121,-0.931,-0.9461999999999999,-0.34785999999999995,0.0257,-0.567,-3.2479999999999998,0.385,-0.14,0.9995471351567169,2.372029299987671,1.0084450949853443,3.319520748541873,2.007992230142061,5.691550048529544
2025-03-12 00:15:03.900,180.74074074074073,0.6830888888888889,0.22628888888888887,0.6988,1.0655555555555556,-2.3644444444444446,-1.2055555555555555,-0.9849399999999999,-0.27796,0.052649999999999995,-3.4019999999999997,-5.614,-2.065,-0.14,1.0030645698847231,2.8599598546780984,1.0247636740731982,6.881484214905967,2.0278282439579214,9.741444069584066
2025-03-12 00:15:04.000,180.6060606060606,0.77348,0.28153,0.74741,20.629,-4.654999999999999,3.4579999999999997,-0.8868666666666667,-0.4885555555555556,0.10687777777777778,5.475555555555555,-4.627777777777777,3.251111111111111,-0.14,1.111823798719923,21.428542414266072,1.0181561150881324,7.871960318704563,2.1299799138080555,29.300502732970635
2025-03-12 00:15:04.100,185.67857142857142,0.68901,0.32822999999999997,0.7212099999999999,19.256999999999998,0.5880000000000003,18.613,-0.9458,-0.34404,-0.04211,-1.085,9.568999999999999,7.357000000000001,-0.14,1.0500540829404932,26.78845949284878,1.007310485252685,12.118928789294868,2.0573645681931785,38.90738828214365
2025-03-12 00:15:04.200,178.875,0.7074333333333334,0.22138888888888889,0.6839,58.38777777777778,-31.352222222222224,24.095555555555556,-0.9639222222222222,-0.2611222222222222,-0.14226666666666665,-1.2444444444444445,-3.173333333333334,3.717777777777778,-0.19,1.008560445007917,70.51730446939695,1.0087470792406505,5.043863402659846,2.017307524248568,75.5611678720568
2025-03-12 00:15:04.300,176.48275862068965,0.5734111111111111,0.25537777777777776,0.8054777777777777,50.64111111111111,-37.76888888888889,18.200000000000003,-0.96247,-0.34609999999999996,0.041389999999999996,-7.455,-17.304,-4.417,-0.19,1.021181943740792,65.7438293870165,1.0236439043925383,19.352398559351755,2.04482584813333,85.09622794636826
2025-03-12 00:15:04.400,168.5483870967742,0.600909090909091,0.28082727272727276,0.5304272727272727,30.316363636363636,-51.691818181818185,-11.581818181818182,-0.9253899999999999,-0.41036,0.11321,4.130000000000001,-5.082,3.689,-0.19,0.8492989958180339,61.03494477322868,1.0186061485186508,7.516138968912164,1.8679051443366848,68.55108374214085
2025-03-12 00:15:04.500,162.375,0.9279000000000001,0.4833333333333333,0.27582222222222225,51.77666666666667,-39.23888888888889,-15.011111111111111,-0.9673222222222222,-0.2667888888888889,0.028088888888888892,3.546666666666667,2.807777777777778,6.9688888888888885,-0.24,1.0819830957009986,66.67718552200448,1.0038314492575526,8.30830144129991,2.0858145449585512,74.9854869633044
2025-03-12 00:15:04.600,163.17857142857142,1.0102,0.41997,0.26087,27.195,-0.133,7.819,-0.96716,-0.21867,0.06563,-9.863,-5.096,-0.574,-0.24,1.1246919568486298,28.29704003955184,0.9937415818008221,11.116539974290562,2.1184335386494517,39.413580013842406
2025-03-12 00:15:04.700,180.59375,0.9398,0.34750000000000003,0.34398999999999996,10.437000000000001,4.305,5.04,-0.9684,-0.3516333333333333,0.06961111111111112,-10.593333333333334,-9.325555555555557,-9.395555555555555,-0.24,1.0593910562677034,12.363882642600585,1.032613319641595,16.954679640983933,2.0920043759092986,29.31856228358452
2025-03-12 00:15:04.800,190.3448275862069,0.7522777777777778,0.4202777777777778,0.37824444444444444,2.4733333333333336,-16.154444444444444,13.61888888888889,-0.92926,-0.38319000000000003,0.00693,-4.795,-3.4859999999999998,-2.541,-0.24,0.9410760464410861,21.273400942358062,1.005189906734046,6.449876122841429,1.946265953175132,27.72327706519949
2025-03-12 00:15:04.900,191.06451612903226,0.72811,0.33686,0.31442000000000003,-2.618,-17.052,-1.6309999999999998,-0.9553499999999999,-0.3256,-0.02717,-1.918,-2.338,-1.0779999999999998,-0.27,0.8616720768946851,17.32872727582727,1.0096767757059681,3.2104597801561074,1.8713488526006532,20.539187055983376
2025-03-12 00:15:05.000,191.56666666666666,0.8017333333333334,0.4006,0.28152222222222223,-4.394444444444444,-6.012222222222222,-1.96,-0.9502666666666667,-0.3270555555555556,0.01348888888888889,-4.347777777777778,-9.97888888888889,-4.332222222222223,-0.27,0.9394208105969956,7.700620625942519,1.005064189154597,11.715355071206524,1.9444849997515927,19.415975697149044
2025-03-12 00:15:05.100,193.19354838709677,0.92486,0.32841,0.30896999999999997,-9.037,9.625,3.122,-0.9389,-0.37147,0.051870000000000006,-4.843999999999999,-9.639,-5.054,-0.27,1.028922547425218,13.566682645363235,1.0110458287337918,11.912916225677069,2.0399683761590097,25.479598871040302
2025-03-12 00:15:05.200,193.96428571428572,0.8821777777777777,0.3944666666666667,0.3900111111111111,-6.510000000000001,3.398888888888889,1.0655555555555556,-0.9303444444444445,-0.3899222222222222,0.05276666666666666,-2.714444444444444,-5.024444444444445,-2.4344444444444444,-0.27,1.0420893673318872,7.420778552213215,1.0101309052803351,6.208040783562103,2.0522202726122223,13.628819335775319
2025-03-12 00:15:05.300,194.78787878787878,0.8439,0.37405,0.34613,-3.864,-6.720000000000001,0.13999999999999999,-0.93171,-0.38523,0.04739,-1.26,-2.772,-0.49000000000000005,-0.27,0.9858430855871536,7.752966915961915,1.0093222919860634,3.0841018141429766,1.995165377573217,10.837068730104892
2025-03-12 00:15:05.400,194.78571428571428,0.88016,0.35683,0.33510999999999996,-3.4090000000000003,0.749,-1.9739999999999998,-0.93496,-0.37898,0.02952,-0.77,-3.1079999999999997,0.42000000000000004,-0.27,1.0071285849383882,4.009857603456761,1.009280670774983,3.229390654597241,2.0164092557133713,7.239248258054002
2025-03-12 00:15:05.500,194.5,0.9526222222222223,0.34047777777777777,0.36186666666666667,-1.337777777777778,-3.6166666666666663,-4.441111111111111,-0.9391777777777778,-0.3657333333333333,0.04195555555555555,-0.06222222222222223,-3.1966666666666668,0.9022222222222224,-0.26,1.0744122578770885,5.881615004548358,1.0087497400369883,3.3221309909435623,2.0831619979140767,9.203745995491921
2025-03-12 00:15:05.600,193.68965517241378,1.03183,0.25634,0.34569,-2.6670000000000003,-17.85,-4.669,-0.94277,-0.35982,0.04506,-0.42699999999999994,-3.2689999999999997,0.252,-0.13,1.1179825224930844,18.642289290749677,1.0101069789383696,3.306386849719796,2.128089501431454,21.948676140469473
2025-03-12 00:15:05.700,192.61290322580646,0.6628499999999999,0.52246,0.47815,7.889,-6.195,6.712999999999999,-0.9351555555555555,-0.37472222222222223,0.043588888888888885,-0.8866666666666667,-3.3133333333333335,-0.1711111111111111,0.01,0.9700319564839088,12.06974378352747,1.0083812018022489,3.434186158014914,1.9784131582861577,15.503929941542383
2025-03-12 00:15:05.800,191.0344827586207,0.5351888888888889,0.3867777777777778,0.294,-4.775555555555556,10.694444444444445,11.145555555555555,-0.93803,-0.37268,0.03714,-0.315,-3.101,0.238,0.18,0.7228140813327031,16.16788426113576,1.0100346741077755,3.12603102991637,1.7328487554404786,19.29391529105213
2025-03-12 00:15:05.900,190.03125,1.04138,0.26986,0.18353999999999998,-14.112,24.955000000000002,-15.953,-0.94228,-0.3614,0.03161,-0.9099999999999999,-3.969,-0.11200000000000002,0.31,1.0913219761371984,32.80851685157377,1.009703298251521,4.073524886385254,2.1010252743887197,36.88204173795903
2025-03-12 00:15:06.000,189.86206896551724,0.983,0.5150666666666667,0.4323111111111111,26.024444444444445,4.861111111111111,-11.083333333333334,-0.9287777777777778,-0.3908222222222222,0.07927777777777778,-0.9488888888888888,-4.612222222222222,0.7077777777777778,0.5,1.1909977195197454,28.70091266239318,1.0107695760785076,4.761715377186391,2.201767295598253,33.46262803957957
2025-03-12 00:15:06.100,191.06451612903226,0.79924,0.32091,0.42857,0.8539999999999999,2.9189999999999996,7.090999999999999,-0.9382699999999999,-0.36492,0.03549,1.085,-0.42699999999999994,1.239,0.56,0.9619979472951072,7.715708522229179,1.0073612755114223,1.701374444383129,1.9693592228065295,9.417082966612309
2025-03-12 00:15:06.200,190.07142857142858,0.8266888888888889,0.3558,0.41717777777777776,-2.7533333333333334,-2.8466666666666667,-4.34,-0.94764,-0.34711,0.025419999999999998,-0.931,-4.13,-0.33599999999999997,0.56,0.9919906538289314,5.875368546359926,1.0095311278509445,4.24694678563318,2.001521781679876,10.122315331993107
2025-03-12 00:15:06.300,188.8181818181818,0.8594200000000001,0.39552,0.40889999999999993,1.043,-2.037,-2.891,-0.9321333333333334,-0.3844777777777778,0.05233333333333333,-1.8199999999999998,-4.783333333333333,-0.84,0.56,1.0306493180514893,3.6871532379330265,1.0096704860962449,5.186354960642183,2.0403198041477344,8.873508198575209
2025-03-12 00:15:06.400,187.92857142857142,0.84662,0.39796,0.37688,-2.093,-3.9130000000000003,0.5599999999999999,-0.9312900000000001,-0.38577000000000006,0.0543,-0.154,-2.814,1.043,0.56,1.0085514961567406,4.472786379875525,1.0094890029118693,3.005022628866545,2.0180404990686096,7.47780900874207
2025-03-12 00:15:06.500,188.15625,0.8285666666666667,0.3748888888888889,0.39865555555555554,-1.3377777777777777,-0.8866666666666667,-1.0422222222222224,-0.9419444444444444,-0.3609555555555556,0.036222222222222225,0.09333333333333334,-2.2711111111111113,1.26,0.56,0.9929706199574917,1.9136494770431849,1.0093861000077666,2.598895301877984,2.0023567199652583,4.5125447789211695
2025-03-12 00:15:06.600,187.96428571428572,0.83653,0.3795,0.3947,-5.3759999999999994,1.7849999999999997,-0.15399999999999997,-0.94052,-0.3619,0.04073,-0.735,-3.836,0.10500000000000001,0.53,0.9997953695131819,5.666684833304212,1.0085675055741188,3.90719157451999,2.008362875087301,9.573876407824201
2025-03-12 00:15:06.700,187.6875,0.8377100000000001,0.37614000000000003,0.40658000000000005,-0.35000000000000014,-1.8760000000000001,-0.686,-0.9361666666666666,-0.37574444444444444,0.045533333333333335,-0.7933333333333333,-3.398888888888889,0.11666666666666667,0.5,1.0042642282288063,2.0279230754641557,1.0097847294117128,3.4921962384581478,2.014048957640519,5.5201193139223035
2025-03-12 00:15:06.800,187.17241379310346,0.839,0.378625,0.40065,-0.6912499999999999,-0.8925,-0.35875,-0.93672,-0.37218,0.0442,-0.35,-3.0170000000000003,0.532,0.5,1.0038915843481306,1.18451862585609,1.0089182081814165,3.0834741769633816,2.012809792529547,4.267992802819472
2025-03-12 00:15:06.900,186.32258064516128,0.8385181818181817,0.3770454545454545,0.4086727272727273,1.2536363636363637,-0.6172727272727273,-0.48363636363636364,-0.9382699999999999,-0.36869,0.04285,-0.46900000000000003,-3.304,0.504,0.47,1.0061259434333192,1.4786933029866338,1.0090188459587859,3.374965629454617,2.015144789392105,4.853658932441251
2025-03-12 00:15:07.000,186.40625,0.8405111111111112,0.37674444444444444,0.41441111111111106,0.941111111111111,-1.8355555555555556,-0.1711111111111111,-0.9377800000000001,-0.37025,0.043340000000000004,-0.462,-3.1919999999999997,0.434,0.38,1.0100157787546358,2.0698389631402083,1.0091554620077128,3.2543300385793694,2.0191712407623488,5.324169001719578
2025-03-12 00:15:07.100,186.43333333333334,0.8340799999999999,0.36486,0.40809999999999996,0.784,-3.374,-1.1199999999999999,-0.9376,-0.3712666666666667,0.04408888888888889,-0.4511111111111111,-3.1655555555555557,0.4744444444444444,0.24,0.9976762380652352,3.6404576635362758,1.009394139026592,3.2325440044554288,2.0070703770918272,6.873001667991705
2025-03-12 00:15:07.200,185.83870967741936,0.83542,0.37649,0.39758,0.476,-2.618,-1.365,-0.9379199999999999,-0.3705,0.04489,-0.518,-3.213,0.49000000000000005,0.02,0.9988699379298589,2.990606125854757,1.0094450398610118,3.291168941272994,2.008314977790871,6.281775067127751
2025-03-12 00:15:07.300,185.41379310344828,0.8386,0.38122222222222224,0.40245555555555557,0.5211111111111112,-1.2522222222222221,-0.4122222222222222,-0.9378000000000001,-0.3680555555555556,0.042022222222222225,1.5011111111111113,-3.2666666666666666,0.4977777777777778,-0.08,1.0052615664162141,1.4175840167145102,1.0083152280590642,3.6293564712028124,2.013576794475278,5.046940487917323
2025-03-12 00:15:07.400,185.46875,0.83795,0.37704,0.40841000000000005,0.028000000000000004,-0.6439999999999999,-0.28700000000000003,-0.93787,-0.37021000000000004,0.04415,-0.5389999999999999,-3.15,0.357,-0.16,1.005543679906547,0.7056124998892805,1.0092595322809688,3.215660118855847,2.0148032121875157,3.9212726187451277
2025-03-12 00:15:07.500,185.35714285714286,0.8363333333333334,0.3748888888888889,0.40771111111111114,1.0033333333333332,-2.4733333333333336,-0.6144444444444445,-0.93807,-0.37088,0.04376,-0.595,-3.325,0.392,-0.21,1.00310691034418,2.7389044398927465,1.0096743221950333,3.4004873180178166,2.012781232539213,6.139391757910563
2025-03-12 00:15:07.600,185.1875,0.83546,0.36848000000000003,0.40621,1.204,-0.13299999999999992,-0.27999999999999997,-0.93779,-0.36985999999999997,0.04366,-0.413,-3.178,0.434,-0.215,0.9993885561181898,1.2432638497117174,1.0090355292555362,3.233977272647413,2.008424085373726,4.47724112235913
2025-03-12 00:15:07.700,184.78571428571428,0.8398899999999999,0.37688,0.40509000000000006,0.924,-1.862,-1.127,-0.9376444444444445,-0.36946666666666667,0.04332222222222223,-0.4588888888888889,-3.3444444444444446,0.3733333333333333,-0.215,1.005759242860835,2.3645187671067447,1.008741561012324,3.396360615732488,2.014500803873159,5.760879382839233
2025-03-12 00:15:07.800,185.1875,0.8354666666666666,0.37324444444444443,0.4073777777777778,0.44333333333333336,-1.718888888888889,-0.6377777777777778,-0.9382300000000001,-0.3713,0.04329,-0.504,-3.2340000000000004,0.39899999999999997,-0.215,1.0016349735541952,1.8862353910944636,1.0099570520571657,3.2972675050714346,2.011592025611361,5.183502896165898
2025-03-12 00:15:07.900,184.6,0.83991,0.38878,0.40431999999999996,0.38500000000000006,-1.61,-0.329,-0.9371222222222223,-0.3701777777777778,0.043366666666666664,-0.4122222222222222,-3.2044444444444444,0.5133333333333333,-0.215,1.0099868112505233,1.6877695340300465,1.0085188715740463,3.2713762347268776,2.0185056828245695,4.959145768756924
2025-03-12 00:15:08.000,183.61290322580646,0.8338099999999999,0.3719,0.40732,0.322,-1.225,-0.49000000000000005,-0.9387000000000001,-0.36932,0.043320000000000004,-0.546,-3.199,0.44800000000000006,-0.215,0.9997291175613522,1.3580902031897588,1.0096690422113577,3.2760373929489877,2.0093981597727097,4.634127596138747
2025-03-12 00:15:08.100,183.58620689655172,0.8340000000000001,0.36958888888888886,0.4054111111111111,0.5988888888888889,-1.6800000000000002,-1.5322222222222222,-0.93685,-0.36896,0.04285,-0.532,-3.2060000000000004,0.385,-0.215,0.9982535328274422,2.3513342679224007,1.0077973638584297,3.272565507365743,2.006050896685872,5.623899775288144
2025-03-12 00:15:08.200,182.4375,0.8419399999999999,0.37296,0.40817999999999993,-0.091,-1.526,-1.7149999999999999,-0.93686,-0.37176,0.0427,-0.567,-3.178,0.42699999999999994,-0.18,1.0072601638107208,2.2974294330838543,1.0088287501850848,3.2563018901815597,2.0160889139958056,5.5537313232654135
2025-03-12 00:15:08.300,182.39285714285714,0.847,0.3724,0.39605555555555555,0.21777777777777782,-1.8744444444444446,0.6533333333333333,-0.93812,-0.37182,0.050019999999999995,-0.266,-3.192,0.658,-0.18,1.0064545509293599,1.996951071069823,1.0103569899792846,3.2699516816002037,2.0168115409086447,5.266902752670027
2025-03-12 00:15:08.400,182.6875,0.8394199999999999,0.37903000000000003,0.42363999999999996,3.899,-0.889,-0.882,-0.9358777777777778,-0.3739555555555556,0.04293333333333334,0.2411111111111111,-2.232222222222222,1.0733333333333333,-0.18,1.0137852469334914,4.095173500597991,1.0087384416092444,2.4885728966072893,2.022523688542736,6.58374639720528
2025-03-12 00:15:08.500,182.39285714285714,0.8180999999999999,0.3831777777777778,0.41111111111111115,1.4155555555555557,-3.7022222222222223,-0.04666666666666667,-0.94296,-0.35960000000000003,0.03254,-0.357,-2.7510000000000003,0.819,-0.24,0.9925347173080287,3.9638900957718324,1.009724998799178,2.8924403191768713,2.002259716107207,6.856330414948704
2025-03-12 00:15:08.600,181.9375,0.84375,0.37853,0.39953000000000005,3.535,0.07000000000000002,1.183,-0.9403555555555556,-0.3655222222222222,0.03921111111111111,-1.151111111111111,-3.9977777777777783,-0.2255555555555556,-0.2,1.0073843577800878,3.728352719365484,1.0096596342515816,4.166312429386359,2.0170439920316694,7.894665148751843
2025-03-12 00:15:08.700,181.6206896551724,0.84772,0.34587,0.42588,4.032,-5.2780000000000005,-1.911,-0.93402,-0.3798,0.05451,-0.462,-3.3880000000000003,0.469,-0.2,1.0097668194687326,6.911311670008813,1.0097587536139512,3.4513691486133444,2.0195255730826838,10.362680818622158
2025-03-12 00:15:08.800,181.90322580645162,0.8168777777777777,0.3755,0.3961,-1.1744444444444444,-5.187777777777778,-6.268888888888889,-0.9401299999999999,-0.36677,0.03884,-0.091,-2.366,1.057,-0.2,0.9824381730303238,8.221394402771706,1.0098877142534213,2.592968569034342,1.992325887283745,10.814362971806048
2025-03-12 00:15:08.900,181.46666666666667,0.8318999999999999,0.40997000000000006,0.37669,-0.38499999999999995,-2.618,-3.689,-0.94248,-0.35955,0.03436,-0.651,-3.5770000000000004,0.378,-0.2,1.0010136697368321,4.5399196028123665,1.0093192569747196,3.655354155208494,2.010332926711552,8.19527375802086
2025-03-12 00:15:09.000,181.29032258064515,0.85254,0.39483999999999997,0.3761,1.5539999999999998,-1.498,-2.0789999999999997,-0.9395777777777776,-0.36588888888888893,0.0457,-1.0344444444444445,-3.811111111111111,-0.43555555555555553,-0.2,1.0120149639209886,2.996858521852508,1.00934115615394,3.972952535816637,2.0213561200749286,6.969811057669145
2025-03-12 00:15:09.100,181.17241379310346,0.8112777777777778,0.3844888888888889,0.41734444444444446,0.9722222222222222,0.8166666666666667,-0.9877777777777779,-0.9353899999999999,-0.37751,0.0433,-0.791,-3.339,0.16100000000000003,-0.18,0.9900402636780505,1.6086843792673458,1.0096252483966512,3.4351889322131903,1.9996655120747018,5.043873311480536
2025-03-12 00:15:09.200,181.5,0.85191,0.39498,0.40475000000000005,-2.086,-5.3759999999999994,-3.164,-0.9386333333333332,-0.3666,0.042555555555555555,-0.5677777777777778,-3.352222222222222,0.2488888888888889,-0.18,1.0225372418645688,6.5775122956935625,1.0085827034770556,3.4090630840615304,2.0311199453416244,9.986575379755093
2025-03-12 00:15:09.300,181.39285714285714,0.8200555555555555,0.3925,0.3751555555555556,-1.1666666666666667,-3.9977777777777783,-0.3344444444444445,-0.9374800000000001,-0.37083,0.04264,-0.756,-3.563,0.154,-0.18,0.9835085434614833,4.177941042909138,1.009059863883209,3.6455755375523355,1.992568407344692,7.823516580461474
2025-03-12 00:15:09.400,181.59375,0.83205,0.40293999999999996,0.3825,-1.337,-0.9099999999999999,0.28,-0.9378222222222222,-0.3697888888888889,0.04284444444444444,-0.3811111111111111,-2.9633333333333334,0.42,-0.26,1.000486929499831,1.6413619344922068,1.0090044545289476,3.0171161932310113,2.0094913840287787,4.658478127723218
2025-03-12 00:15:09.500,180.9,0.8499888888888889,0.3843666666666667,0.40574444444444446,1.1666666666666667,-0.3811111111111111,-0.32666666666666666,-0.93651,-0.37151,0.04344,-0.8119999999999999,-3.598,0.154,-0.26,1.0172744958350932,1.2700661011280352,1.008443203061035,3.6917020464820833,2.0257176988961283,4.961768147610119
2025-03-12 00:15:09.600,180.26666666666668,0.82907,0.36921,0.42232000000000003,-2.6599999999999997,-7.728,-2.058,-0.93764,-0.37136,0.04488,-0.364,-3.2060000000000004,0.532,-0.26,1.0010131224914087,8.428104650513069,1.0095004871717497,3.2701614639035794,2.0105136096631586,11.698266114416647
2025-03-12 00:15:09.700,180.0,0.84522,0.4008,0.34950000000000003,-0.5599999999999999,-2.9330000000000003,-1.288,-0.9375888888888889,-0.3713777777777778,0.04398888888888889,-0.6455555555555557,-3.367777777777778,0.3733333333333333,-0.26,0.9985928792055349,3.2519275822195057,1.0094203290704724,3.449354564781685,2.008013208276007,6.701282147001191
2025-03-12 00:15:09.800,180.0,0.83819,0.40664,0.37854,2.898,2.534,2.037,-0.9388099999999999,-0.36933,0.04154,-0.567,-3.255,0.525,-0.26,1.0055899250191402,4.355333397112097,1.0097001716351244,3.345465438470408,2.0152900966542644,7.700798835582505
2025-03-12 00:15:09.900,180.125,0.8372299999999999,0.37465000000000004,0.41466000000000003,-0.6650000000000003,-0.749,2.2960000000000003,-0.9383800000000001,-0.36898,0.04252,-0.63,-3.479,0.14700000000000002,-0.23,1.006607972847424,2.504963472787578,1.0092131663826032,3.538636743154064,2.0158211392300274,6.043600215941642
2025-03-12 00:15:10.000,180.13793103448276,0.8378333333333333,0.36043333333333333,0.39971111111111113,-0.32666666666666666,-1.8666666666666667,0.4744444444444444,-0.9357111111111112,-0.3739777777777778,0.04516666666666667,-0.5366666666666666,-3.3755555555555556,0.29555555555555557,-0.23,0.9958141666836746,1.9535232495211705,1.0086895902636117,3.430705394838333,2.0045037569472863,5.384228644359503
2025-03-12 00:15:10.100,178.96875,0.8342499999999999,0.36927,0.38967,-1.225,-1.526,-3.122,-0.9376300000000001,-0.3722,0.04465,-0.518,-3.311,0.441,-0.23,0.9920565025743241,3.6845874938722787,1.009790314570307,3.3801665639432623,2.001846817144631,7.064754057815541
2025-03-12 00:15:10.200,179.33333333333334,0.84604,0.40099,0.41220999999999997,1.323,-1.554,-2.38,-0.9370666666666667,-0.37129999999999996,0.043055555555555555,-0.4588888888888889,-3.1655555555555557,0.56,-0.2,1.0229827690630962,3.1352264670993066,1.0088663978158732,3.247294410375247,2.0318491668789695,6.382520877474553
2025-03-12 00:15:10.300,178.8125,0.8403222222222222,0.38632222222222223,0.3722888888888889,-1.3222222222222222,-5.024444444444445,0.44333333333333336,-0.9379799999999999,-0.36932,0.042600000000000006,-0.45499999999999996,-3.437,0.44800000000000006,-0.2,0.9969881209589878,5.214389516011568,1.008969029653537,3.495811493773656,2.0059571506125247,8.710201009785225
2025-03-12 00:15:10.400,178.46428571428572,0.8305400000000001,0.36811,0.38,0.11200000000000002,-1.666,-0.8400000000000001,-0.93758,-0.37177000000000004,0.045,-0.497,-3.402,0.33599999999999997,-0.2,0.9847343112230832,1.8691441891946163,1.0096010050014808,3.454491134740398,1.9943353162245638,5.323635323935014
2025-03-12 00:15:10.500,178.09375,0.8417999999999999,0.37995999999999996,0.40553999999999996,0.28,-1.652,-3.717,-0.9371777777777778,-0.37114444444444444,0.042666666666666665,-0.5755555555555555,-3.2433333333333336,0.4588888888888889,-0.2,1.0086919912441061,4.077204066514208,1.0088958470758582,3.3258163390343216,2.0175878383199644,7.40302040554853
2025-03-12 00:15:10.600,177.5,0.836188888888889,0.3837888888888889,0.37485555555555555,1.3844444444444446,-2.24,-3.2977777777777777,-0.937111111111111,-0.3708222222222222,0.044088888888888886,-0.5677777777777778,-3.3055555555555554,0.43555555555555553,-0.2,0.9934900385341903,4.220145103116482,1.00877657842814,3.382126221443809,2.00226661696233,7.6022713245602915
2025-03-12 00:15:10.700,177.06060606060606,0.81403,0.38548,0.37839999999999996,6.664,2.114,-8.988,-0.9376,-0.37136,0.04377,-0.602,-3.22,0.539,-0.26,0.9769474045720169,11.386923904198184,1.0094145939602814,3.319838098462032,1.9863619985322982,14.706762002660216
2025-03-12 00:15:10.800,177.59259259259258,0.8542500000000001,0.42962,0.41635999999999995,5.838,-7.651000000000001,-4.361,-0.93775,-0.36907,0.04442,-0.483,-3.213,0.476,-0.26,1.0429151722455667,10.56590582960117,1.0087422187060477,3.2837834885996977,2.0516573909516147,13.849689318200868
2025-03-12 00:15:10.900,177.25,0.8198000000000001,0.41635999999999995,0.36699000000000004,-0.9099999999999999,-3.85,-3.1990000000000003,-0.93821,-0.36995,0.04192,-0.595,-3.283,0.294,-0.2,0.9900047220594456,5.087651815916652,1.0093851063890331,3.349410395875668,1.9993898284484786,8.43706221179232
2025-03-12 00:15:11.000,176.51724137931035,0.8407111111111111,0.44158888888888886,0.37375555555555556,1.641111111111111,-1.6333333333333333,0.10111111111111108,-0.9372,-0.37239,0.044270000000000004,-0.595,-3.2340000000000004,0.44800000000000006,-0.2,1.0205337497821638,2.3175950710985402,1.0094443942090123,3.3186571079278444,2.029978143991176,5.636252179026385
2025-03-12 00:15:11.100,176.83870967741936,0.8276,0.40729,0.37565,1.302,-1.764,0.9800000000000001,-0.9379777777777778,-0.37006666666666665,0.04537777777777778,-0.5055555555555555,-3.2044444444444444,0.4744444444444445,-0.2,0.995951719010515,2.401520351777182,1.0093615764921733,3.278589353387848,2.005313295502688,5.68010970516503
2025-03-12 00:15:11.200,176.21428571428572,0.8289111111111112,0.41725555555555555,0.38995555555555556,1.0422222222222224,-1.6022222222222222,-0.5988888888888888,-0.93725,-0.36894,0.04104,-0.567,-3.2619999999999996,0.259,-0.2,1.0066087442865148,2.0030005269872273,1.0080865874020941,3.321026046269435,2.0146953316886087,5.3240265732566625
2025-03-12 00:15:11.300,176.15151515151516,0.83252,0.41384,0.36764,-1.624,-2.772,0.791,-0.9367777777777779,-0.3738222222222223,0.04744444444444444,-0.5288888888888889,-3.352222222222222,0.3111111111111111,-0.2,0.9997561030571407,3.3086312880101945,1.009726019311216,3.40791833931029,2.0094821223683565,6.716549627320484
2025-03-12 00:15:11.400,176.39285714285714,0.83209,0.41491,0.38919000000000004,0.763,-0.917,0.217,-0.9374499999999999,-0.37059000000000003,0.043100000000000006,-0.434,-3.164,0.595,-0.22,1.0079647475482463,1.2124961855610104,1.0089633593941851,3.2485807670427405,2.0169281069424314,4.461076952603751
2025-03-12 00:15:11.500,175.96875,0.8311666666666667,0.4032,0.37129999999999996,-1.0344444444444445,-2.8777777777777778,0.4511111111111112,-0.9377666666666666,-0.36985555555555555,0.04441111111111111,-0.6222222222222222,-3.2666666666666666,0.32666666666666666,-0.22,0.9956264147649849,3.0911456584058734,1.0090449939802204,3.341404302991391,2.0046714087452053,6.432549961397264
2025-03-12 00:15:11.600,176.0,0.8333999999999999,0.41611000000000004,0.37376,-0.784,-0.7769999999999999,0.5529999999999999,-0.93764,-0.37132,0.043590000000000004,-0.623,-3.5490000000000004,0.238,-0.22,1.0036929957412275,1.234582520530726,1.0094292447219866,3.6111181093949285,2.013122240463214,4.845700629925655
2025-03-12 00:15:11.700,175.59375,0.8369300000000001,0.40364000000000005,0.38897,-0.217,0.44099999999999995,1.316,-0.9374399999999999,-0.37342,0.04403,-0.5599999999999999,-3.2270000000000003,0.378,-0.22,1.007310644935315,1.4047868165668411,1.010037074022533,3.2969702758745036,2.017347718957848,4.701757092441345
2025-03-12 00:15:11.800,175.7,0.8340000000000001,0.3924111111111111,0.38583333333333336,-0.30333333333333334,-1.4155555555555557,0.8477777777777777,-0.93821,-0.36970000000000003,0.04383,-0.623,-3.1990000000000003,0.378,-0.18,0.9992046042901164,1.6776578323571039,1.009374639566499,3.28094711935441,2.0085792438566155,4.958604951711514
2025-03-12 00:15:11.900,175.3548387096774,0.8328300000000001,0.39681,0.3881,0.06300000000000003,-1.547,-0.329,-0.9379444444444444,-0.37120000000000003,0.04353333333333334,-0.56,-3.29,0.35777777777777775,-0.18,1.0008424426451947,1.582851540732737,1.009665475281446,3.3564423037304847,2.010507917926641,4.939293844463222
2025-03-12 00:15:12.000,175.06896551724137,0.8390333333333334,0.40021111111111113,0.3880777777777778,0.7233333333333333,-1.0344444444444445,-0.20222222222222222,-0.93733,-0.37199,0.04461,-0.588,-3.276,0.39899999999999997,-0.18,1.0073481173388736,1.2783505962425097,1.0094325837320688,3.3521815284975243,2.0167807010709424,4.630532124740034
2025-03-12 00:15:12.100,174.5625,0.8367699999999999,0.39601000000000003,0.39327,0.658,-1.827,-0.11200000000000002,-0.9369555555555557,-0.3708777777777778,0.04381111111111111,-0.4744444444444444,-3.328888888888889,0.5366666666666666,-0.15,1.0058177001325836,1.9451059097128875,1.0086403980570047,3.405085883871831,2.0144580981895883,5.3501917935847185
2025-03-12 00:15:12.200,174.60714285714286,0.8375999999999999,0.397,0.38748,0.16799999999999998,-2.884,-0.623,-0.9374600000000001,-0.37068,0.04475,-0.595,-3.2689999999999997,0.343,-0.19,1.0046509395805092,2.9553018458357174,1.0090775374073093,3.340364501068708,2.0137284769878185,6.295666346904426
2025-03-12 00:15:12.300,173.90625,0.8355111111111111,0.3947888888888889,0.38432222222222223,0.10111111111111115,-2.8466666666666667,-0.4977777777777778,-0.9376666666666666,-0.3710555555555556,0.04456666666666667,-0.56,-3.1033333333333335,0.4822222222222222,-0.19,1.0008199908445445,2.8916288288697456,1.0093994208756996,3.190112231471287,2.010219411720244,6.081741060341033
2025-03-12 00:15:12.400,173.6551724137931,0.8381111111111111,0.39435555555555557,0.3860111111111111,-1.368888888888889,-1.7655555555555555,-0.6222222222222222,-0.9378500000000001,-0.37204000000000004,0.04431,-0.623,-3.2689999999999997,0.371,-0.19,1.0034695394812274,2.3190954494594878,1.0099206702508867,3.3484520304164427,2.013390209732114,5.66754747987593
2025-03-12 00:15:12.500,173.80645161290323,0.83614,0.39285000000000003,0.38577,0.39199999999999996,-2.324,-0.497,-0.93793,-0.37087000000000003,0.04403,-0.567,-3.1710000000000003,0.413,-0.19,1.0011392086018807,2.4086612464188484,1.009552317960788,3.247660542606016,2.0106915265626686,5.656321789024864
2025-03-12 00:15:12.600,173.40625,0.83926,0.39483999999999997,0.38815,0.553,-1.8969999999999998,-0.623,-0.9369222222222222,-0.3735777777777778,0.04402222222222222,-0.4977777777777778,-3.181111111111111,0.42000000000000004,-0.19,1.0054433826427025,2.07184627808146,1.009614561400831,3.247098800049661,2.0150579440435337,5.3189450781311205
2025-03-12 00:15:12.700,173.39285714285714,0.83468,0.38948,0.3882,0.09100000000000001,-2.814,-1.9739999999999998,-0.9380200000000001,-0.36994000000000005,0.04363,-0.45499999999999996,-3.2270000000000003,0.462,-0.19,0.9995422016103171,3.4385393701395945,1.0092773161525033,3.2915039115881366,2.0088195177628205,6.730043281727731
2025-03-12 00:15:12.800,172.5,0.8422555555555555,0.3997777777777778,0.38124444444444444,0.2722222222222222,-3.2666666666666666,-1.221111111111111,-0.93672,-0.37254,0.044340000000000004,-0.511,-3.052,0.385,-0.19,1.0072556869479015,3.498046368340724,1.0090572063069565,3.1183409050326745,2.0163128932548577,6.616387273373398
2025-03-12 00:15:12.900,171.75862068965517,0.8380000000000001,0.39688,0.37839,0.364,-2.394,-0.413,-0.9380333333333333,-0.37120000000000003,0.04312222222222222,-0.5911111111111111,-3.3055555555555554,0.4277777777777778,-0.23,1.0014672867847458,2.4564814267565716,1.0097304098093842,3.385129791264096,2.01119769659413,5.841611218020668
2025-03-12 00:15:13.000,171.125,0.83941,0.39537999999999995,0.38386,1.1620000000000001,-2.198,-0.42700000000000005,-0.9376899999999999,-0.37074,0.04328,-0.45499999999999996,-3.2479999999999998,0.39899999999999997,-0.23,1.0041329553898728,2.522652770398653,1.0092491476835639,3.3038961848096857,2.013382103073437,5.826548955208339
2025-03-12 00:15:13.100,171.0,0.8381666666666666,0.39180000000000004,0.38398888888888894,0.10888888888888887,-2.5122222222222224,-0.6766666666666666,-0.9379333333333333,-0.37104444444444445,0.04408888888888889,-0.5677777777777778,-3.2433333333333336,0.39666666666666667,-0.23,1.0017375244550013,2.6040343818253238,1.0096220816000019,3.316463049770618,2.011359606055003,5.920497431595942
2025-03-12 00:15:13.200,170.40625,0.8401400000000001,0.39524,0.37643,0.24500000000000002,-2.6390000000000002,-0.658,-0.93754,-0.37155,0.04375,-0.532,-3.15,0.44799999999999995,-0.23,1.0018729570659146,2.7308075728619183,1.0094279155046189,3.225868565208446,2.0113008725705335,5.956676138070364
2025-03-12 00:15:13.300,169.82142857142858,0.8373333333333333,0.3958777777777778,0.37766666666666665,1.0966666666666667,-2.0066666666666664,-0.9877777777777779,-0.9364222222222222,-0.3718666666666667,0.04331111111111111,-0.5288888888888889,-3.1888888888888887,0.4588888888888889,-0.23,1.000239189974325,2.4910025746996918,1.0084876044826043,3.2648606118508052,2.0087267944569294,5.7558631865504974
2025-03-12 00:15:13.400,169.59375,0.83603,0.3968,0.37889,0.63,-2.331,0.042,-0.9383699999999999,-0.36985999999999997,0.04442,-0.623,-3.2060000000000004,0.32199999999999995,-0.19,0.9999770162358733,2.415,1.009607752000746,3.2818057529354174,2.0095847682366195,5.6968057529354175
2025-03-12 00:15:13.500,169.25,0.8406111111111111,0.39626666666666666,0.37358888888888886,0.49,1.2911111111111113,0.031111111111111107,-0.9371600000000001,-0.372,0.0425,-0.5599999999999999,-3.2969999999999997,0.434,-0.16,1.0016101882148576,1.3813166915914454,1.0091873540626637,3.3722640762550014,2.0107975422775213,4.753580767846447
2025-03-12 00:15:13.600,169.21875,0.84078,0.38732,0.38061,0.8960000000000001,-1.4280000000000002,-0.46900000000000003,-0.9382300000000001,-0.37074,0.04431,-0.406,-3.304,0.378,-0.16,1.0008954805073305,1.7498459932234038,1.0097955518816668,3.3502441702061057,2.0106910323889973,5.10009016342951
